unix_timestamp,acc_x,acc_y,acc_z,gyro_x,gyro_y,gyro_z
1790809658.397564,0.0,0.0,0.0,0.0,0.0,0.0
1790809658.402119,-0.01549,0.01011,-1.00126,-0.00013,0.0016,0.00289
1790809658.4075441,-0.01628,0.01102,-1.00117,-0.00104,0.00043,0.00374
1790809658.4355998,-0.01469,0.00912,-1.00109,-0.00016,0.00318,0.00484
1790809658.575053,-0.01522,0.01177,-1.00116,-0.00033,-0.00021,0.00235
1790809658.583643,-0.01668,0.0115,-1.00073,0.0011,0.00277,0.00298
1790809658.590824,-0.01754,0.0106,-1.00042,-0.00205,0.00497,0.00277
1790809658.61724,-0.01636,0.01051,-1.00031,0.00188,0.00204,0.0038
1790809658.757004,-0.01644,0.01167,-1.00167,-0.00181,0.00108,0.0008
1790809658.76349,-0.01626,0.0098,-1.00195,0.00168,0.00273,0.0048
1790809658.7759411,-0.01914,0.0112,-1.00035,0.00056,0.0032,0.00489
1790809658.8497338,-0.01844,0.0111,-1.00109,-0.00014,0.0027,0.00407
1790809658.854239,-0.01668,0.00975,-0.99876,0.00088,0.00104,0.00552
1790809658.855642,-0.01501,0.00988,-0.99923,0.00179,8e-05,0.00236
1790809659.016594,-0.01331,0.01122,-0.99975,-0.00213,0.00237,0.0016
1790809659.024401,-0.01605,0.0097,-1.00123,-0.00036,0.00283,0.00245
1790809659.032356,-0.01683,0.01123,-1.00072,0.00134,0.0018,0.00441
1790809659.036721,-0.01676,0.01155,-0.99944,0.00086,0.00128,0.0038
1790809659.057395,-0.01833,0.0114,-0.99939,0.00178,0.00177,0.00274
1790809659.1939142,-0.01928,0.00958,-1.0001,-8e-05,0.00153,0.00414
1790809659.201231,-0.01593,0.01103,-1.00128,0.00044,0.00182,0.0018
1790809659.204457,-0.01663,0.01033,-1.00029,-0.00079,0.00226,0.00336
1790809659.215575,-0.01565,0.00989,-1.00078,0.00068,0.00194,0.00362
1790809659.23558,-0.01602,0.01234,-1.00002,-0.00068,0.00226,0.00323
1790809659.253778,-0.01743,0.01134,-0.99933,-0.00183,0.0015,0.00212
1790809659.29716,-0.02323,0.00997,-1.00099,8e-05,-0.00721,0.00425
1790809659.310494,-0.00478,0.01284,-0.99828,-0.0037,0.02164,-0.00407
1790809659.338165,-0.01107,0.00689,-1.00067,-0.00324,-0.00986,0.00962
1790809659.355503,-0.03011,0.01663,-1.00163,-0.00132,-0.00496,0.00226
1790809659.377076,-0.01791,0.00866,-1.00155,-0.00044,0.00171,0.00067
1790809659.399497,-0.01233,0.00887,-0.9996,0.00013,0.01827,0.00485
1790809659.4108002,-0.04962,0.00385,-1.00485,0.00011,-0.02551,0.00612
1790809659.4363341,-0.03381,0.02156,-1.00064,-0.00246,0.0119,-0.01126
1790809659.4575949,0.0182,0.01999,-0.99663,0.00546,0.01716,0.00473
1790809659.475997,-0.00466,-0.00383,-1.00082,-0.01366,0.00268,0.01499
1790809659.496995,-0.02937,0.00028,-1.00286,-0.00206,0.00317,-0.00849
1790809659.515777,-0.00474,-0.00234,-0.99872,0.01066,-0.00336,0.01938
1790809659.555703,-0.00593,0.02072,-1.00353,-0.0094,0.0046,-0.01099
1790809659.57699,-0.01808,-0.00562,-1.00096,0.00319,-0.00161,0.00622
1790809659.599222,-0.01876,0.0273,-0.99983,0.00237,0.00256,4e-05
1790809659.610249,-0.01933,0.00434,-0.99924,0.00273,-0.00075,0.01426
1790809659.6364899,-0.0185,0.00505,-1.00211,0.0006,0.00694,-0.00786
1790809659.655534,-0.02216,0.01418,-1.00207,-0.00187,0.00292,0.00693
1790809659.6728802,-0.0241,0.01645,-1.00102,0.00301,0.00071,0.00575
1790809659.698992,-0.0087,0.00609,-0.99692,0.00734,0.0194,-0.00117
1790809659.7129412,-0.04797,-0.00063,-1.00562,0.00468,-0.03699,0.00615
1790809659.738533,-0.02394,0.02063,-0.99956,0.00592,-0.00193,-0.00836
1790809659.756892,-0.00419,0.01858,-0.99868,0.00776,0.00593,0.01189
1790809659.772931,-0.01473,0.00472,-1.00406,-0.00991,-0.00258,0.01046
1790809659.823562,0.00398,-0.00393,-1.00044,-0.00528,0.02583,-0.01583
1790809659.838346,-0.05136,-0.00415,-1.0051,-0.00787,-0.02123,0.00166
1790809659.855535,-0.00274,0.01871,-0.99594,-0.00256,0.01584,-0.00325
1790809659.87202,-0.00263,0.01651,-0.99743,0.00457,-0.00726,0.01198
1790809659.89844,-0.04675,-0.00353,-1.00179,-0.00731,0.00149,0.0062
1790809659.9174678,-0.01302,0.02445,-0.99962,-0.00262,0.00319,-0.01017
1790809659.937293,-0.00543,0.00454,-0.99818,0.0032,0.0064,0.01126
1790809659.955586,-0.02795,0.00963,-1.00342,-0.00202,0.00383,0.00611
1790809659.9963598,-0.01822,0.01674,-1.00324,0.00202,0.00361,-0.0076
1790809660.0145128,-0.00937,0.00809,-1.00004,7e-05,0.00549,0.00903
1790809660.037108,-0.0169,0.00435,-1.00182,0.00208,0.00152,0.01202
1790809660.0569549,-0.01531,0.02102,-1.00234,0.00148,0.00023,-0.01083
1790809660.075663,-0.01487,0.00448,-1.00085,5e-05,0.00384,0.01398
1790809660.099776,-0.01562,0.00843,-1.0014,-0.00093,0.00082,0.00364
1790809660.116791,-0.01576,0.01632,-0.99939,-0.0006,0.00287,-0.00473
1790809660.132997,-0.01856,0.00604,-1.0012,0.0023,-0.00056,0.01252
1790809660.160105,-0.01636,0.01147,-1.00189,0.00046,0.00354,-0.00299
1790809660.177987,-0.01826,0.01307,-1.00251,0.00046,0.00228,0.00317
1790809660.197695,-0.01809,0.01303,-0.99963,0.00069,0.0034,-0.00289
1790809660.2152572,-0.01771,0.00993,-1.0,0.00094,0.00218,0.00582
1790809660.23611,-0.01681,0.00805,-0.99997,0.00342,0.0008,0.00436
1790809660.2563891,-0.01446,0.01271,-1.00169,-0.00234,0.00313,-0.00099
1790809660.27759,-0.01724,0.00783,-1.00112,-0.00319,0.00228,0.00883
1790809660.313025,-0.01601,0.01082,-1.00165,-0.0007,0.00409,-0.00044
1790809660.3367622,-0.01551,0.01121,-1.00303,-0.00072,0.00385,0.00194
1790809660.356999,-0.01577,0.01144,-1.00183,-0.00026,-8e-05,0.00131
1790809660.397469,-0.01746,0.01018,-1.00101,-0.00039,0.00317,0.00627
1790809660.416241,-0.01662,0.01011,-1.00202,-0.00091,0.00258,0.00363
1790809660.43573,-0.01576,0.01211,-1.00278,0.00034,0.00299,0.00137
1790809660.45713,-0.01613,0.0096,-1.00024,0.00046,0.00085,0.00646
1790809660.479212,-0.01593,0.00905,-1.00041,-0.00049,0.00258,0.00437
1790809660.496872,-0.01598,0.01215,-1.00075,0.00054,0.0019,0.00088
1790809660.516661,-0.01821,0.00979,-1.0016,0.001,0.00308,0.00657
1790809660.537571,-0.01938,0.01003,-1.00095,0.0011,0.00243,0.00406
1790809660.562562,-0.01627,0.01225,-1.0002,0.0013,0.00359,0.00266
1790809660.5787368,-0.01785,0.01005,-1.00087,-0.00047,0.00152,0.00181
1790809660.598198,-0.01645,0.01106,-1.00033,0.00132,0.00354,0.00307
1790809660.61714,-0.01718,0.00829,-1.00112,0.00103,0.00078,0.00577
1790809660.639727,-0.01556,0.01168,-1.0003,0.00108,0.00279,0.00101
1790809660.65622,-0.01686,0.00973,-1.00092,0.00157,0.00298,0.00547
1790809660.68256,-0.01831,0.00879,-1.0016,0.00238,0.0004,0.00297
1790809660.700376,-0.01739,0.01151,-1.00048,-0.00099,0.00149,0.0009
1790809660.72542,-0.01682,0.00929,-0.99942,0.00063,0.00235,0.00706
1790809660.7383559,-0.01627,0.01061,-1.00228,0.0004,0.00244,0.00147
1790809660.757306,-0.01813,0.01066,-1.00324,0.00319,0.00372,0.00386
1790809660.797227,-0.01755,0.01037,-1.00192,0.00017,0.00381,0.00513
1790809660.8174741,-0.01679,0.01221,-1.00179,-0.00161,-4e-05,0.00372
1790809660.837156,-0.0179,0.01084,-1.00213,-0.00069,0.00453,0.00464
1790809660.862666,-0.01874,0.00997,-1.00013,-2e-05,0.00188,0.00229
1790809660.879074,-0.01821,0.01042,-1.00165,0.00223,0.00058,0.00348
1790809660.899477,-0.01608,0.00984,-1.00005,0.00075,0.00309,0.00349
1790809660.92192,-0.01535,0.01044,-1.00043,0.00061,0.00051,0.00299
1790809660.932805,-0.01501,0.01134,-1.002,-0.00019,0.00218,0.00261
1790809660.956801,-0.01512,0.01085,-1.00116,-0.00214,0.00146,0.0008
1790809660.977182,-0.01509,0.00912,-0.99995,0.00045,0.00198,0.00144
1790809661.000468,-0.01553,0.0102,-1.0009,-0.00292,0.0033,0.0041
1790809661.019347,-0.01819,0.01116,-1.00094,0.00085,0.00299,0.00376
1790809661.034485,-0.02042,0.00912,-1.00219,-0.00134,-0.00107,0.00451
1790809661.0573802,-0.01877,0.01133,-1.00121,0.00091,0.00391,0.00452
1790809661.09655,-0.01693,0.01026,-0.99963,-0.00052,0.00222,0.00427
1790809661.115227,-0.01734,0.00966,-1.00047,-0.0001,0.001,0.00358
1790809661.116571,-0.01641,0.01195,-1.00129,0.00152,0.00441,0.00464
1790809661.1367989,-0.0158,0.01169,-1.00035,0.00054,0.00236,0.00319
1790809661.15821,-0.01705,0.01043,-1.00007,-0.00054,0.0035,0.00278
1790809661.191873,-0.0166,0.01129,-1.00068,-0.00139,0.00299,0.00453
1790809661.216935,-0.01675,0.0126,-0.99997,-0.00218,0.0035,0.00248
1790809661.237055,-0.01724,0.01151,-1.00114,0.00105,-0.0003,0.00378
1790809661.2573812,-0.01686,0.01139,-0.99978,-0.00402,0.00192,0.00297
1790809661.277868,-0.01675,0.01141,-1.00125,0.0015,0.00465,0.00122
1790809661.3013499,-0.0172,0.01104,-1.00259,0.00029,0.00143,0.00332
1790809661.3260312,-0.0169,0.01095,-0.99967,-0.001,-0.00109,0.00233
1790809661.3374982,-0.01598,0.0112,-0.99982,0.00147,0.00027,0.00332
1790809661.359329,-0.01712,0.01074,-1.00119,-0.00096,0.00238,0.00446
1790809661.371614,-0.01723,0.01099,-0.99978,0.00042,0.00147,0.00315
1790809661.3980238,-0.01787,0.01102,-0.99976,-0.00074,0.00303,0.00417
1790809661.419035,-0.01659,0.01128,-1.00085,-0.00166,0.00036,0.00244
1790809661.432155,-0.01578,0.0116,-1.00264,-0.0002,0.00299,0.004
1790809661.4657679,-0.01552,0.01117,-1.00172,-0.00065,0.00315,0.00502
1790809661.477576,-0.0158,0.01158,-1.00074,-0.00185,0.00293,0.00363
1790809661.515295,-0.01789,0.01002,-1.00015,-0.0017,0.00319,0.00471
1790809661.520164,-0.01785,0.01015,-1.00188,-0.0007,0.00232,0.0018
1790809661.55585,-0.01689,0.01094,-1.00269,0.00202,0.00141,0.00172
1790809661.577427,-0.01732,0.00899,-1.00117,-0.00181,0.00129,0.00636
1790809661.598379,-0.0172,0.00969,-1.00082,0.00153,0.00176,0.00446
1790809661.617541,-0.01677,0.00999,-1.00102,-0.0015,0.00194,0.004
1790809661.637982,-0.01752,0.00873,-1.00139,0.00102,0.00148,0.00401
1790809661.655715,-0.01625,0.01052,-1.00182,0.00048,0.00365,0.00284
1790809661.6820512,-0.01607,0.01001,-1.00172,-0.00219,0.00285,0.00304
1790809661.699554,-0.0166,0.01128,-1.00038,0.00116,-0.00055,0.00258
1790809661.728742,-0.01666,0.01056,-1.00039,0.00211,0.00203,0.00371
1790809661.737661,-0.01638,0.01036,-1.00098,-0.00147,0.00146,0.0051
1790809661.781433,-0.01706,0.01033,-1.00182,0.00054,0.0016,0.00455
1790809661.7967381,-0.01952,0.00935,-1.00084,0.00115,0.00395,0.00226
1790809661.817854,-0.01921,0.01016,-1.00016,-5e-05,0.00208,-0.00106
1790809661.835679,-0.01822,0.0088,-1.00127,7e-05,0.00243,0.00414
1790809661.857898,-0.01632,0.01016,-1.00134,-0.00022,0.00394,0.00328
1790809661.878428,-0.01542,0.01084,-1.00009,-0.00077,0.00078,0.00346
1790809661.900457,-0.01647,0.01023,-1.00119,-0.00034,0.0027,0.00274
1790809661.9194188,-0.01495,0.01117,-1.00183,-0.00196,0.00426,0.00204
1790809661.936877,-0.01483,0.0096,-1.00009,0.00051,0.00056,0.00502
1790809661.955873,-0.01774,0.00925,-0.99979,-0.00031,0.002,0.00379
1790809661.9783192,-0.0189,0.0113,-1.00047,-0.00159,0.00283,0.00278
1790809661.999004,-0.02069,0.00921,-1.00131,-0.00073,-7e-05,0.00509
1790809662.019156,-0.01802,0.01012,-1.00116,-0.00081,0.00428,0.00344
1790809662.0398011,-0.01606,0.01025,-1.00083,0.00025,0.0014,0.00315
1790809662.0606878,-0.01695,0.00879,-0.99998,0.00039,-0.00076,0.00774
1790809662.08047,-0.01684,0.01217,-1.00117,-0.0002,0.00117,0.00099
1790809662.097852,-0.01737,0.01152,-1.00033,0.0009,0.00018,0.00347
1790809662.124725,-0.01752,0.00973,-1.00048,0.00213,0.00207,0.00469
1790809662.1424,-0.01564,0.01219,-1.00048,-0.00076,0.00392,0.00186
1790809662.1589088,-0.01628,0.0095,-1.00216,-0.00294,0.00297,0.00581
1790809662.1780438,-0.01673,0.00897,-1.00155,-0.00185,0.0046,0.0066
1790809662.1979089,-0.01625,0.0109,-1.00073,-0.00189,0.00292,0.00279
1790809662.217598,-0.01613,0.01005,-1.00194,-0.00051,0.00398,0.00237
1790809662.236863,-0.0173,0.01004,-1.00058,0.00035,0.00169,0.00338
1790809662.257772,-0.01914,0.00974,-1.00059,0.00267,0.0004,0.00244
1790809662.277628,-0.01884,0.01056,-0.99904,-0.0012,0.00288,0.00484
1790809662.2975402,-0.0184,0.0103,-0.99815,0.00164,0.0035,0.0048
1790809662.319947,-0.01704,0.00949,-1.00293,0.00081,0.00193,0.00495
1790809662.3384619,-0.0155,0.00974,-1.00462,-0.00021,0.00147,0.00308
1790809662.359442,-0.01507,0.01248,-1.00042,6e-05,0.00113,0.0034
1790809662.384317,-0.01481,0.01141,-0.99835,0.00128,0.00165,0.00398
1790809662.3978822,-0.01641,0.00871,-1.00146,-0.0007,0.00416,0.00422
1790809662.418674,-0.01681,0.01105,-1.00261,-0.00422,0.00271,0.00179
1790809662.437091,-0.01726,0.01122,-0.99954,0.00061,0.00069,0.00281
1790809662.461501,-0.01699,0.0097,-1.00148,-0.00332,0.00345,0.00332
1790809662.47744,-0.01639,0.01139,-1.00291,-0.00136,0.00382,-1e-05
1790809662.4982998,-0.01716,0.01085,-1.003,-0.00297,0.00042,0.00245
1790809662.5222049,-0.0183,0.01105,-1.00027,0.00286,0.00086,0.00323
1790809662.537565,-0.01892,0.01057,-0.9993,-0.00086,0.00199,0.00318
1790809662.55697,-0.01809,0.01078,-1.00223,-0.00302,0.00418,0.00384
1790809662.5775201,-0.01821,0.01007,-1.00261,-0.0007,0.00362,0.00254
1790809662.598485,-0.01784,0.00939,-0.99921,-0.00226,0.00387,0.00523
1790809662.6181388,-0.01684,0.01105,-0.9987,-0.00162,0.00273,0.00191
1790809662.65828,-0.01642,0.01027,-1.00054,-1e-05,0.00126,0.00536
1790809662.677713,-0.01643,0.00951,-1.00282,0.00147,0.00241,0.00495
1790809662.6971068,-0.01748,0.00967,-1.00124,0.00071,0.00397,0.00361
1790809662.7240179,-0.01643,0.01145,-1.0005,-0.00047,0.0033,0.00154
1790809662.738726,-0.01746,0.01256,-1.00033,0.00021,0.00197,0.00114
1790809662.758094,-0.01746,0.01256,-1.00033,0.00021,0.00197,0.00114
1790809662.7773519,-0.01664,0.00855,-1.00051,-0.00114,0.00095,0.00709
1790809662.805908,-0.0162,0.01098,-1.00247,0.00127,0.00065,0.00212
1790809662.819394,-0.0162,0.01098,-1.00247,0.00127,0.00065,0.00212
1790809662.8417358,-0.01754,0.01006,-1.00202,-0.00013,-0.0003,0.0049
1790809662.8571022,-0.01842,0.01146,-1.0007,0.003,0.00471,0.00267
1790809662.877342,-0.01969,0.01103,-1.00234,0.00043,0.00557,0.00181
1790809662.900794,-0.02011,0.00981,-1.00393,0.00169,0.00106,0.0035
1790809662.91813,-0.01893,0.0112,-1.00194,0.00234,0.00175,0.00302
1790809662.96002,-0.01756,0.01155,-1.00081,0.00044,0.00087,0.00281
1790809662.977225,-0.01531,0.01186,-0.99932,-0.00128,0.00106,0.00365
1790809662.996655,-0.01509,0.01012,-1.00323,-0.00298,0.00235,0.00441
1790809663.016497,-0.01413,0.01099,-1.00299,-8e-05,0.00306,0.00211
1790809663.036033,-0.01419,0.01028,-1.00087,0.00095,0.00191,0.0053
1790809663.061419,-0.01461,0.01115,-1.0004,-0.00239,0.0037,0.00074
1790809663.077566,-0.01915,0.00933,-1.00275,0.00117,-0.00022,0.00333
1790809663.097365,-0.01929,0.01151,-0.99979,-0.0018,0.00354,0.00024
1790809663.118813,-0.02003,0.0093,-0.99941,-0.00151,0.00302,0.00574
1790809663.134528,-0.0189,0.00892,-1.00209,-0.00147,0.00455,0.00607
1790809663.161957,-0.01773,0.01185,-1.00276,-0.00058,0.00123,0.0024
1790809663.17753,-0.01708,0.01067,-1.00173,0.00124,0.00113,0.00433
1790809663.2165928,-0.01652,0.01066,-1.00039,-0.00196,0.00067,-0.00031
1790809663.243603,-0.01668,0.01117,-1.00155,-0.00035,-1e-05,0.00193
1790809663.258646,-0.01597,0.0101,-1.00128,-0.001,0.00157,0.00079
1790809663.2782679,-0.01597,0.0101,-1.00128,-0.001,0.00157,0.00079
1790809663.296565,-0.01549,0.01059,-1.00109,0.00055,0.00306,0.00379
1790809663.318568,-0.01586,0.01146,-1.00039,0.00134,0.00132,0.00075
1790809663.3384051,-0.01627,0.00886,-1.0011,-0.00014,0.00068,0.00412
1790809663.3593721,-0.01715,0.01002,-0.99931,0.0001,0.00275,0.00229
1790809663.381603,-0.01697,0.0111,-1.00163,0.0022,0.00224,0.00235
1790809663.397129,-0.0183,0.00835,-1.00275,-0.00042,0.00335,0.00636
1790809663.4189062,-0.01784,0.0111,-1.00176,0.00127,0.00046,0.00319
1790809663.4396648,-0.01739,0.01049,-1.00126,0.00072,0.00091,0.00373
1790809663.461168,-0.0171,0.00984,-1.00163,-3e-05,0.0032,0.00654
1790809663.479624,-0.01693,0.01173,-1.00267,0.00149,0.00314,0.0028
1790809663.502722,-0.01811,0.00892,-1.00186,0.0008,0.00095,0.00549
1790809663.520573,-0.01797,0.01033,-1.00135,-0.00055,0.00156,0.00143
1790809663.559486,-0.01884,0.00958,-1.0001,-0.0009,0.00315,0.00352
1790809663.580427,-0.01741,0.01095,-1.00148,-0.00153,0.00249,0.00071
1790809663.597229,-0.01786,0.0097,-1.00219,-0.00206,0.00159,0.00334
1790809663.617249,-0.01676,0.01147,-1.00139,0.00062,0.00276,0.00077
1790809663.63793,-0.01606,0.01039,-1.00042,-0.00296,0.00202,0.00413
1790809663.659607,-0.01505,0.01044,-1.00097,-0.00176,0.00154,0.00348
1790809663.678064,-0.01437,0.01004,-1.00102,-0.00132,0.00367,0.00386
1790809663.6985269,-0.01673,0.01157,-1.00033,-0.00122,0.00179,0.00266
1790809663.716809,-0.01932,0.00991,-1.00029,-0.00082,0.00133,0.00347
1790809663.737519,-0.02006,0.00944,-1.00107,0.0008,0.00367,0.0029
1790809663.756276,-0.01836,0.01133,-1.00057,0.00127,0.00171,0.00245
1790809663.7814028,-0.01805,0.00964,-0.99999,-0.0009,0.00333,0.00379
1790809663.797035,-0.01744,0.01072,-1.00163,-0.00161,0.00092,0.00278
1790809663.818675,-0.01587,0.01071,-1.00324,-0.00029,0.00376,0.00233
1790809663.838722,-0.01532,0.00881,-1.00105,-0.00123,0.0021,0.00353
1790809663.881012,-0.01444,0.01099,-1.00008,0.00022,0.00216,0.00129
1790809663.8977711,-0.01506,0.00969,-1.0012,0.00187,0.0041,0.00311
1790809663.918806,-0.01371,0.01144,-1.00231,-0.00168,0.00284,0.00245
1790809663.9369001,-0.01574,0.00931,-1.00119,0.00306,0.00158,0.00572
1790809663.954884,-0.01614,0.01088,-1.00123,-0.0001,0.00215,0.00411
1790809663.976524,-0.01683,0.01006,-1.00091,-0.00156,0.00182,0.00273
1790809664.005426,-0.01937,0.00926,-1.00199,0.00156,0.00501,0.00528
1790809664.037944,-0.0184,0.00951,-1.00112,-0.00238,0.00245,0.00303
1790809664.0603352,-0.01648,0.01171,-1.00114,-0.00377,0.00295,0.00246
1790809664.079746,-0.01816,0.00965,-1.0012,0.00126,0.00076,0.00661
1790809664.0972621,-0.01685,0.01116,-1.00103,-0.00286,0.00349,-0.00034
1790809664.116864,-0.0165,0.01128,-1.00028,0.00075,0.00329,0.00269
1790809664.140852,-0.0163,0.00899,-1.00241,-0.00312,0.00087,0.00799
1790809664.160619,-0.01472,0.01259,-1.0011,0.00186,0.00179,0.00181
1790809664.178006,-0.01442,0.01079,-1.0009,-0.00171,0.00397,0.00151
1790809664.2168498,-0.01505,0.00804,-1.00149,-0.00255,0.00208,0.00435
1790809664.2368178,-0.01728,0.00947,-1.00038,-0.00178,0.00019,0.00324
1790809664.248039,-0.01794,0.01039,-1.00099,-0.00032,0.00093,0.0016
1790809664.279524,-0.01819,0.00987,-1.00278,-0.00075,-0.0001,0.00525
1790809664.297743,-0.0185,0.01029,-1.00324,-3e-05,0.00375,0.003
1790809664.317419,-0.01782,0.01193,-1.00264,-0.00485,0.00243,0.00112
1790809664.339692,-0.01605,0.01118,-1.00082,0.00204,0.00437,0.00267
1790809664.349161,-0.01609,0.00948,-1.00111,0.00117,0.00071,0.00401
1790809664.376608,-0.01439,0.01262,-1.00066,-0.00044,0.00264,0.002
1790809664.397623,-0.01545,0.01039,-1.00172,0.00313,0.00349,0.00457
1790809664.418779,-0.01621,0.01179,-1.00193,0.00248,0.00379,0.00195
1790809664.438622,-0.01792,0.01031,-1.00163,-0.00076,0.0038,0.00324
1790809664.4580858,-0.02044,0.00889,-1.00078,0.00338,0.00338,0.00267
1790809664.479518,-0.01825,0.01166,-1.00226,-0.00054,0.00126,0.00205
1790809664.49499,-0.0179,0.00803,-1.00258,0.00021,0.00265,0.00575
1790809664.5203898,-0.01662,0.0102,-1.00082,0.00023,0.00183,0.00197
1790809664.539619,-0.01453,0.01209,-1.00135,-0.00047,0.00429,0.00146
1790809664.560373,-0.01553,0.00844,-1.00004,-6e-05,0.00255,0.0039
1790809664.576438,-0.01596,0.01049,-0.99941,-0.00182,0.00277,0.00105
1790809664.597827,-0.01611,0.01007,-1.00067,8e-05,0.00199,0.0031
1790809664.619215,-0.01718,0.0098,-1.00245,0.00317,0.00175,0.00328
1790809664.6384451,-0.0168,0.01223,-1.00318,-7e-05,0.00352,0.00294
1790809664.663274,-0.01731,0.00944,-1.00177,0.00084,0.00162,0.00688
1790809664.677283,-0.01772,0.01132,-0.99996,0.00052,0.00011,-8e-05
1790809664.7278788,-0.01887,0.00958,-1.00252,0.00168,0.00147,0.00541
1790809664.738525,-0.01657,0.01253,-1.00115,0.00092,0.00269,-0.00082
1790809664.7573602,-0.01644,0.00864,-1.00048,-0.0023,0.0029,0.00737
1790809664.7770429,-0.01583,0.01044,-1.00261,-0.00066,0.00142,0.00223
1790809664.799415,-0.01485,0.01226,-1.0015,-0.00102,0.00248,0.00276
1790809664.818472,-0.01626,0.00999,-1.00148,0.00167,0.00137,0.00462
1790809664.859061,-0.01514,0.01225,-1.00194,-0.00016,0.00229,0.00019
1790809664.877952,-0.01635,0.01109,-1.00122,0.00076,0.00056,0.00296
1790809664.898301,-0.01735,0.01029,-1.00044,-0.00216,0.00228,0.00209
1790809664.918805,-0.0177,0.01025,-0.99972,0.00224,0.00166,0.00612
1790809664.9397771,-0.01852,0.01029,-1.001,-0.00422,0.0024,0.00189
1790809664.957626,-0.01709,0.01096,-1.00203,-0.00224,0.00197,0.00438
1790809664.978127,-0.0184,0.01092,-1.00055,0.0009,0.00073,0.00329
1790809664.996971,-0.0178,0.01085,-1.0024,-0.00286,0.00359,0.00295
1790809665.0239959,-0.01712,0.00971,-1.00251,0.00098,0.00205,0.0025
1790809665.0383492,-0.01667,0.01169,-1.00236,0.00359,0.00332,0.00157
1790809665.059823,-0.01713,0.01025,-1.00138,0.0004,0.00146,0.00314
1790809665.0786188,-0.01574,0.01241,-1.00024,-0.00092,0.00269,0.00115
1790809665.101025,-0.01721,0.00917,-0.99977,-0.0015,0.00283,0.00582
1790809665.118026,-0.01591,0.01017,-1.00251,-0.0002,0.00173,0.00314
1790809665.137832,-0.01603,0.01192,-1.00141,0.00133,0.00293,0.00172
1790809665.156696,-0.01763,0.00925,-1.00071,7e-05,0.00192,0.00549
1790809665.1791072,-0.01878,0.0102,-0.99942,-0.00063,0.00139,0.00169
1790809665.2217789,-0.01866,0.01142,-1.0018,-0.0028,0.00415,0.0025
1790809665.238257,-0.01852,0.00975,-1.00281,-0.001,0.00162,0.00193
1790809665.260175,-0.01719,0.01108,-1.00159,-0.00196,0.00115,0.0021
1790809665.281384,-0.0163,0.01102,-1.00344,0.00214,0.00142,0.00177
1790809665.299009,-0.0163,0.0101,-1.00228,-0.00219,0.0011,0.00365
1790809665.3179798,-0.01656,0.00998,-1.00016,0.00091,0.00355,0.00524
1790809665.3423629,-0.01709,0.00972,-1.00146,-0.00062,0.00174,0.00205
1790809665.358488,-0.0177,0.0082,-1.00339,0.00302,0.00055,0.00118
1790809665.378037,-0.01726,0.00974,-1.00194,-0.00069,0.00457,0.0034
1790809665.400036,-0.01869,0.0102,-0.99937,0.00141,0.00271,0.00326
1790809665.4207091,-0.01976,0.01044,-0.99975,0.00063,0.00143,0.00068
1790809665.448273,-0.01948,0.01078,-1.00168,0.0014,0.00444,0.00344
1790809665.477827,-0.01846,0.01007,-1.0015,0.00089,0.00481,0.00459
1790809665.4995441,-0.01687,0.01109,-1.00001,-0.0006,0.00356,0.00398
1790809665.515174,-0.0167,0.01045,-0.99964,0.00064,0.00255,0.0047
1790809665.538613,-0.01604,0.01045,-1.00129,-0.00185,0.00285,0.00202
1790809665.557334,-0.01477,0.00905,-1.00078,-0.00153,0.00425,0.00342
1790809665.577612,-0.01613,0.00995,-1.00016,-0.00144,0.00292,0.00319
1790809665.5976589,-0.01728,0.011,-1.0019,-0.00247,0.00404,0.00206
1790809665.6178298,-0.01822,0.0102,-1.00196,-0.00035,0.00312,0.00526
1790809665.6397812,-0.01674,0.01178,-1.00015,-3e-05,0.0004,0.00215
1790809665.660515,-0.01688,0.00906,-1.00021,0.00108,-0.0003,0.00377
1790809665.6784482,-0.01638,0.00917,-1.00121,-6e-05,0.00173,0.00267
1790809665.698549,-0.01643,0.01093,-1.00218,-1e-05,0.00231,0.00337
1790809665.7142432,-0.01685,0.00907,-1.00296,1e-05,-0.00121,0.00147
1790809665.74431,-0.01663,0.01056,-1.00128,-0.00299,0.00333,0.00609
1790809665.758556,-0.01932,0.01098,-0.99928,0.00063,-0.0015,0.00446
1790809665.779349,-0.01933,0.01019,-1.00148,-0.00294,0.0027,0.00148
1790809665.818215,-0.01748,0.01029,-1.00236,0.00062,0.00471,0.00287
1790809665.8405068,-0.01826,0.0095,-1.00137,0.00024,0.0012,0.00282
1790809665.85862,-0.01819,0.01024,-1.00103,2e-05,0.00138,0.00369
1790809665.8803258,-0.01737,0.01048,-1.00098,-0.00213,0.00277,0.00628
1790809665.900013,-0.01595,0.01207,-1.00017,-0.00165,0.00067,0.00128
1790809665.9180539,-0.01596,0.01063,-1.00059,0.00055,0.00206,0.00429
1790809665.946711,-0.01567,0.00974,-1.00172,-0.00121,0.00502,0.00441
1790809665.9609249,-0.01532,0.01074,-1.00261,-0.00251,0.0008,0.00332
1790809665.980799,-0.01677,0.01115,-1.00125,-0.00096,0.00191,0.00429
1790809666.0053911,-0.01686,0.00973,-1.00186,-0.00077,0.00276,0.00367
1790809666.017812,-0.01744,0.0113,-1.00238,-0.0018,0.00297,0.00252
1790809666.059215,-0.01829,0.00895,-1.00204,-0.0031,0.00389,0.00458
1790809666.079919,-0.01854,0.01112,-1.00156,-0.00167,5e-05,0.00221
1790809666.100362,-0.0179,0.00982,-1.00152,0.00094,0.00029,0.00474
1790809666.126814,-0.01566,0.0133,-1.00179,-0.00209,0.00194,0.0009
1790809666.159513,-0.01692,0.00948,-1.00109,0.00214,0.00253,0.00407
1790809666.1801789,-0.01823,0.00913,-1.00343,0.00067,0.00178,0.00427
1790809666.198921,-0.01818,0.01123,-1.00269,0.00042,0.00261,0.00233
1790809666.215988,-0.01889,0.00962,-1.00063,-0.0001,0.00219,0.00522
1790809666.2394528,-0.01869,0.01197,-1.00203,0.00112,0.00249,0.00318
1790809666.273942,-0.01827,0.01097,-1.00101,-0.00352,0.00251,0.00208
1790809666.303753,-0.01635,0.0094,-1.00116,-0.00013,0.00195,0.00377
1790809666.315889,-0.01576,0.01038,-1.00105,-0.00042,-0.00036,0.00166
1790809666.341162,-0.01611,0.00996,-1.00273,0.00025,0.00056,0.00416
1790809666.361944,-0.01659,0.01084,-1.00133,0.00113,0.00139,0.00242
1790809666.3815072,-0.01599,0.01135,-1.0035,-0.00246,0.0027,0.00477
1790809666.399201,-0.01803,0.00931,-1.0017,-0.00223,0.00237,0.00417
1790809666.416152,-0.01853,0.01256,-1.00206,-0.0019,0.00057,0.00108
1790809666.446635,-0.02016,0.00941,-1.00265,-0.00064,0.00127,0.00348
1790809666.4635048,-0.02163,0.01077,-1.00186,-0.00127,-0.00144,0.00279
1790809666.480549,-0.02019,0.01297,-1.0013,-0.00026,0.00374,0.00038
1790809666.498772,-0.01803,0.00868,-1.0021,-2e-05,0.00229,0.00279
1790809666.5211399,-0.01608,0.01072,-1.00244,0.00054,-0.00065,0.00182
1790809666.5419478,-0.01557,0.01274,-1.001,0.00023,0.00137,0.0019
1790809666.563339,-0.01588,0.00866,-1.00064,0.0011,0.00063,0.0028
1790809666.5885298,-0.015,0.01219,-1.00132,-0.00103,0.00158,0.00295
1790809666.5992541,-0.01677,0.01036,-1.00187,-0.00034,0.0032,0.00369
1790809666.638426,-0.01762,0.00978,-1.0004,0.00077,0.00322,0.00421
1790809666.658932,-0.01671,0.01184,-1.00116,0.00022,0.00043,0.00413
1790809666.671286,-0.01973,0.01123,-1.00105,0.00026,0.00428,0.00468
1790809666.699084,-0.02089,0.01068,-1.00052,-0.00131,0.00164,0.00377
1790809666.7217762,-0.02011,0.01253,-1.00031,-0.00108,0.0027,0.00042
1790809666.741087,-0.01796,0.0103,-1.00109,-0.00063,0.00153,0.00416
1790809666.7601228,-0.01626,0.00969,-1.00129,-0.00457,0.00073,0.00247
1790809666.782624,-0.01569,0.0116,-1.00209,-0.00275,0.00165,-0.00079
1790809666.7993221,-0.01597,0.00978,-1.00143,-0.00071,0.0023,0.0049
1790809666.8214421,-0.01461,0.01088,-1.0018,0.00239,0.00105,0.00235
1790809666.845508,-0.01348,0.01239,-0.99969,-0.0008,0.00253,0.00237
1790809666.8600771,-0.01685,0.00876,-0.99981,-0.00109,0.00204,0.00532
1790809666.880852,-0.017,0.01114,-1.0025,0.00034,0.00262,0.0007
1790809666.9181151,-0.01827,0.01203,-1.0019,0.00169,0.00299,0.00168
1790809666.941801,-0.01808,0.01158,-1.00206,0.0014,0.00197,0.00083
1790809666.958621,-0.01762,0.00969,-1.0023,-0.00055,0.00173,0.00437
1790809666.987489,-0.01638,0.00934,-1.0038,0.00074,0.0028,0.00552
1790809666.9996748,-0.01605,0.01169,-1.00344,0.00069,0.00447,0.00033
1790809667.0142012,-0.01636,0.00973,-1.00152,0.00161,0.00325,0.00395
1790809667.0410318,-0.01591,0.00937,-1.00151,-0.00184,0.00069,0.00311
1790809667.07015,-0.01676,0.01006,-1.00254,-0.00043,0.00188,0.0065
1790809667.084736,-0.01878,0.01055,-1.00179,0.00106,0.00226,0.00288
1790809667.101415,-0.01928,0.01085,-1.00282,0.00075,0.00129,0.00126
1790809667.114374,-0.01907,0.00906,-1.00323,-0.00132,0.00175,0.00583
1790809667.1386318,-0.01853,0.01067,-1.00142,0.00297,0.00136,0.00025
1790809667.160692,-0.01924,0.01017,-1.00182,-0.00105,0.00264,0.00205
1790809667.178232,-0.01759,0.01152,-1.00086,-0.00083,0.00147,0.00397
1790809667.214567,-0.01644,0.01088,-1.00189,-0.00129,0.00281,0.00063
1790809667.239957,-0.01615,0.01064,-1.00235,-0.00061,0.00381,0.00434
1790809667.258395,-0.01613,0.01096,-1.00258,-0.00313,0.0014,0.00244
1790809667.276232,-0.01603,0.01142,-1.00235,-0.00096,0.00266,0.00455
1790809667.299086,-0.01743,0.01141,-1.00238,-0.00303,0.00292,0.00132
1790809667.315486,-0.01731,0.01087,-1.00058,0.00153,0.00307,0.00447
1790809667.342578,-0.01594,0.01093,-1.00086,-6e-05,0.0028,0.00294
1790809667.3606029,-0.01729,0.00971,-1.00188,-0.0024,0.00299,0.00769
1790809667.378614,-0.01853,0.01075,-1.00194,0.0008,0.00168,0.0016
1790809667.398926,-0.01746,0.01045,-1.00086,-0.00058,0.00211,0.00178
1790809667.417043,-0.01691,0.00876,-1.00102,0.00057,0.00362,0.00602
1790809667.441391,-0.017,0.01055,-1.00225,0.00181,0.00228,0.0032
1790809667.458805,-0.01787,0.00933,-1.00137,-0.00106,0.00272,0.00467
1790809667.4752278,-0.01855,0.01067,-1.00035,0.0002,0.0007,0.00277
1790809667.499145,-0.01804,0.01119,-1.0013,-0.00158,0.00088,0.00214
1790809667.516469,-0.0167,0.00921,-1.00238,-0.00162,0.00314,0.00244
1790809667.541051,-0.01683,0.00972,-1.00138,-0.00229,0.00145,0.00189
1790809667.558753,-0.01796,0.01075,-1.00111,0.00053,0.00238,0.00414
1790809667.583956,-0.01729,0.01015,-1.00192,-0.00152,0.00071,0.00119
1790809667.600389,-0.01683,0.01095,-1.00169,0.00022,0.00209,0.00522
1790809667.619157,-0.01733,0.01112,-1.00125,-0.00249,0.00137,0.00364
1790809667.638935,-0.0182,0.01016,-1.00165,0.00011,0.00081,0.00145
1790809667.659053,-0.01836,0.01021,-1.00156,0.0009,0.00303,0.0029
1790809667.680581,-0.01741,0.01019,-1.00165,0.00231,0.0004,0.00279
1790809667.725419,-0.01706,0.01007,-1.0005,-0.00126,0.00198,0.00506
1790809667.739007,-0.0168,0.01071,-1.00232,0.00119,0.00316,0.00257
1790809667.760776,-0.0176,0.01028,-1.00312,-0.00053,0.00104,0.00312
1790809667.779596,-0.017,0.01046,-1.00203,-0.00078,0.00224,0.00473
1790809667.800565,-0.01545,0.01229,-1.00014,0.00043,0.00205,0.00098
1790809667.823915,-0.0157,0.01041,-0.99943,0.00023,0.00408,0.00441
1790809667.8400278,-0.01685,0.01024,-1.00123,0.00177,0.00253,0.00359
1790809667.861808,-0.01657,0.01103,-1.0025,0.00176,0.00174,0.00253
1790809667.8802838,-0.01741,0.01094,-1.00299,0.00082,0.00329,0.00218
1790809667.89997,-0.01743,0.01176,-1.00248,-0.00231,0.00237,0.00444
1790809667.9267762,-0.01838,0.01028,-1.0016,-0.00176,0.00185,0.00506
1790809667.9415412,-0.01904,0.01102,-0.99982,-0.0023,0.00247,0.00395
1790809667.960095,-0.01772,0.01192,-1.00015,-0.00045,0.00259,0.00268
1790809667.9789078,-0.01702,0.01038,-1.00138,-0.00159,0.00208,0.00526
1790809668.001272,-0.01561,0.01147,-1.00164,-0.0027,0.00345,0.00297
1790809668.02247,-0.0159,0.01048,-1.00132,-0.002,0.00304,0.003
1790809668.0397089,-0.01524,0.00995,-1.00182,-0.00067,0.00615,0.00167
1790809668.078891,-0.01444,0.01155,-1.00204,0.00139,0.00405,0.00244
1790809668.101253,-0.01538,0.00959,-1.00177,-0.00067,0.00315,0.00521
1790809668.123355,-0.0163,0.01121,-1.00281,0.00186,0.00394,0.00174
1790809668.141484,-0.01751,0.01103,-1.0023,0.00143,0.00121,0.00436
1790809668.159192,-0.01824,0.0105,-1.00209,-0.00015,0.00178,0.00343
1790809668.179323,-0.01809,0.0108,-1.00229,0.00091,0.00256,0.00347
1790809668.205833,-0.01847,0.00881,-1.0023,-0.00268,0.00195,0.00677
1790809668.2213,-0.01621,0.01163,-1.00075,-0.0012,0.0028,0.00273
1790809668.238606,-0.01721,0.00979,-1.0022,0.00208,0.00252,0.00373
1790809668.260355,-0.01665,0.01277,-1.00136,-0.00137,0.0009,0.0021
1790809668.270564,-0.01659,0.00886,-1.00223,0.00079,0.0015,0.00571
1790809668.2993338,-0.01468,0.01095,-1.00235,-0.00155,0.00612,0.00371
1790809668.322731,-0.01566,0.01067,-1.00164,-0.00207,-0.00027,-0.0001
1790809668.3388422,-0.01657,0.00978,-1.00131,-0.00129,0.0036,0.00465
1790809668.360211,-0.01699,0.01246,-1.00135,0.00052,0.00215,0.00153
1790809668.371541,-0.01825,0.01082,-1.00178,-0.0002,0.00167,0.00357
1790809668.402581,-0.01799,0.01121,-1.00256,-0.00126,0.00087,0.00446
1790809668.4196491,-0.01815,0.01096,-1.00172,-0.00237,0.00081,0.00441
1790809668.439243,-0.01857,0.01048,-1.00137,-0.00013,0.0028,0.00432
1790809668.462572,-0.01749,0.01117,-1.0006,-0.00042,0.0033,0.0019
1790809668.474009,-0.0168,0.01001,-0.9996,-0.00061,0.00111,0.00262
1790809668.52051,-0.01618,0.0096,-1.00108,-0.00108,0.00102,0.00306
1790809668.5389812,-0.01702,0.00933,-1.00132,-0.003,0.00295,0.00335
1790809668.561023,-0.01507,0.01307,-1.00169,0.00098,0.00457,0.002
1790809668.5773902,-0.01601,0.00953,-1.00146,-0.00182,-0.00014,0.00438
1790809668.6028569,-0.01645,0.00856,-1.00147,0.00096,0.00083,0.002
1790809668.6198888,-0.01629,0.011,-0.99979,0.00207,0.0013,0.00125
1790809668.639669,-0.01647,0.01023,-1.00077,-1e-05,0.00448,0.00469
1790809668.659075,-0.01691,0.01016,-1.00183,0.00295,0.00228,0.0028
1790809668.696321,-0.01697,0.01075,-1.00098,0.00019,0.00204,0.00507
1790809668.728987,-0.01688,0.01085,-1.00183,-0.00269,0.00154,0.00375
1790809668.76134,-0.01773,0.01044,-1.00208,-0.00066,0.00039,0.00379
1790809668.775664,-0.01817,0.01005,-1.00215,0.0017,0.00049,0.00119
1790809668.79909,-0.01864,0.00928,-1.00115,0.00025,0.00218,0.00229
1790809668.821198,-0.01738,0.0109,-1.00198,-0.00066,0.00169,0.00132
1790809668.839366,-0.01633,0.01051,-1.00322,0.00056,0.00218,0.00123
1790809668.8599622,-0.01692,0.00993,-1.00381,-0.00081,0.00325,0.00446
1790809668.879949,-0.0166,0.01217,-1.00297,-0.00343,0.00292,0.00246
1790809668.898438,-0.01733,0.011,-1.00161,0.0018,0.00159,0.00379
1790809668.922454,-0.01648,0.0112,-1.00242,0.00098,0.00332,0.00341
1790809668.9323862,-0.01633,0.01062,-1.00122,0.00096,0.00019,0.00027
1790809668.95857,-0.01613,0.01016,-1.00023,0.0039,0.00226,0.00455
1790809668.985464,-0.01603,0.01106,-0.99946,-0.00175,0.00374,0.00384
1790809669.000746,-0.01692,0.01199,-1.00067,0.00271,0.00212,0.00181
1790809669.020594,-0.01789,0.01011,-1.00189,-0.0018,0.00152,0.00462
1790809669.040668,-0.01901,0.00998,-1.00034,-0.00031,0.00195,0.00201
1790809669.0587652,-0.01834,0.01135,-1.00043,0.00223,0.00335,0.0041
1790809669.080728,-0.01857,0.01104,-1.00127,-0.00035,0.00238,0.00553
1790809669.120267,-0.01829,0.01164,-1.00139,0.00285,0.00029,0.00187
1790809669.143203,-0.01785,0.01154,-1.00036,-0.00251,0.00295,0.00312
1790809669.1618292,-0.01625,0.01106,-1.00146,1e-05,0.00324,0.00406
1790809669.178895,-0.01407,0.0105,-1.00188,0.00035,-0.00019,0.00186
1790809669.19882,-0.01531,0.01215,-1.00134,-0.00102,0.00099,0.00283
1790809669.218843,-0.01608,0.01061,-1.00067,-0.00041,0.00212,0.00332
1790809669.233341,-0.01687,0.01181,-1.00308,-0.00093,0.00153,0.00081
1790809669.264011,-0.01837,0.0099,-1.00284,-0.00145,0.00282,0.00463
1790809669.280322,-0.01766,0.0104,-1.00096,-0.00091,0.0028,0.00292
1790809669.300202,-0.01673,0.01101,-1.00261,-0.00302,0.00066,0.00424
1790809669.321737,-0.0158,0.01011,-1.00273,0.00099,0.00022,0.00162
1790809669.337898,-0.01615,0.01046,-1.00189,-0.00264,0.00132,0.0046
1790809669.35878,-0.01579,0.01199,-1.00116,0.00248,0.00269,0.00189
1790809669.383719,-0.01655,0.01108,-1.00256,0.00335,0.0035,0.00288
1790809669.4005818,-0.01687,0.01025,-1.00254,-0.00115,0.0037,0.00402
1790809669.419371,-0.01775,0.01079,-1.0022,-0.00257,0.00247,0.00336
1790809669.4417439,-0.01637,0.01135,-1.00222,-0.00318,0.00494,0.00365
1790809669.460182,-0.01742,0.00997,-1.00203,-0.00181,0.00359,0.00311
1790809669.480309,-0.01802,0.01063,-1.00249,0.00138,0.00132,0.00452
1790809669.5186439,-0.01701,0.01075,-1.00131,-0.00106,0.00069,0.00152
1790809669.539486,-0.01683,0.01028,-1.00099,0.00027,0.00524,0.00295
1790809669.558899,-0.0176,0.00988,-1.00113,0.00059,0.00218,0.00514
1790809669.581082,-0.01617,0.00952,-1.00182,-0.00191,0.00221,0.00386
1790809669.599376,-0.01511,0.01108,-1.00057,-0.00049,0.00101,0.00198
1790809669.62037,-0.01659,0.01001,-1.00068,0.00102,0.00051,0.00638
1790809669.638489,-0.01698,0.01147,-1.00229,-0.00325,-0.0011,0.00132
1790809669.6598568,-0.01785,0.01076,-1.00307,-0.00208,0.0013,0.00537
1790809669.6783302,-0.01869,0.00925,-1.00086,0.00067,0.00208,0.00329
1790809669.6984372,-0.01869,0.00925,-1.00086,0.00067,0.00208,0.00329
1790809669.722347,-0.01766,0.01031,-1.00127,0.00046,0.00289,0.00495
1790809669.736625,-0.01692,0.01121,-1.00244,0.00018,-0.00085,0.0014
1790809669.760514,-0.01748,0.01022,-1.00233,-0.00066,-3e-05,0.00428
1790809669.779636,-0.01704,0.01055,-1.00064,0.00269,0.00222,0.00113
1790809669.7992399,-0.01677,0.01095,-1.0005,-0.00063,0.00041,0.0033
1790809669.819295,-0.01722,0.01034,-1.00094,-0.00107,0.00189,0.00361
1790809669.84127,-0.01676,0.0116,-1.00107,-0.00046,0.00209,0.00217
1790809669.859367,-0.0172,0.01045,-1.00133,-0.0006,0.00247,0.00345
1790809669.880505,-0.01788,0.00949,-1.00222,0.00222,0.00259,0.00399
1790809669.9185228,-0.0179,0.01162,-1.00224,-0.00102,0.00163,0.00055
1790809669.933868,-0.01721,0.00962,-1.0013,-0.00302,0.00164,0.00277
1790809669.958838,-0.01972,0.00782,-1.00084,0.00292,0.00259,0.00427
1790809669.9790568,-0.01896,0.01249,-1.00165,0.00041,0.0064,0.00291
1790809670.000182,-0.01871,0.01197,-1.00126,-0.00116,0.00222,0.00653
1790809670.018979,-0.01618,0.01067,-1.00136,-0.00024,0.0029,0.00162
1790809670.0391622,-0.016,0.01114,-1.00129,-0.00202,0.00213,0.00295
1790809670.058444,-0.01733,0.01034,-1.00203,-0.00225,0.00239,0.00357
1790809670.088305,-0.0178,0.00952,-1.00205,-0.00062,0.00312,0.0034
1790809670.102541,-0.0164,0.00984,-1.00182,-0.0023,0.00163,0.0046
1790809670.121315,-0.01688,0.00918,-1.00116,-0.00044,0.00398,0.00363
1790809670.139353,-0.01636,0.01126,-1.00157,-0.00051,0.00131,0.00187
1790809670.16241,-0.01774,0.0091,-1.00086,0.00229,0.00104,0.00385
1790809670.1974342,-0.0182,0.01079,-1.00006,-0.00027,0.00291,0.00195
1790809670.222389,-0.01886,0.01103,-1.00165,0.00046,0.00169,0.00253
1790809670.245386,-0.01873,0.0102,-1.00233,-0.0006,0.00227,0.00349
1790809670.261473,-0.01702,0.01006,-1.00276,-0.00042,0.00172,0.00411
1790809670.279358,-0.01567,0.00959,-1.00276,0.00074,0.00236,0.00257
1790809670.299802,-0.01521,0.0104,-1.0017,-0.00086,0.00188,0.00178
1790809670.321152,-0.01539,0.01125,-1.00239,0.00021,0.00108,0.00503
1790809670.339689,-0.01599,0.00972,-1.00228,0.0002,0.00126,0.00095
1790809670.3590138,-0.01647,0.01147,-1.00263,-0.00126,0.00109,0.00168
1790809670.38423,-0.01861,0.00892,-1.00229,-0.00232,0.00416,0.00163
1790809670.393209,-0.01875,0.00925,-1.00188,0.00111,0.00197,0.00367
1790809670.428006,-0.01857,0.01069,-1.00331,0.00017,0.00291,0.00133
1790809670.438821,-0.01705,0.01131,-1.00184,0.00178,0.00388,0.00175
1790809670.459476,-0.01627,0.00867,-1.00145,-0.00143,0.00282,0.00506
1790809670.489622,-0.01451,0.01099,-1.00161,0.00111,0.00243,0.00226
1790809670.495384,-0.01366,0.01187,-1.00147,-0.00021,0.00014,0.00182
1790809670.5220108,-0.01536,0.00845,-1.00075,-0.00023,-0.00104,0.00477
1790809670.540429,-0.01491,0.01195,-1.0011,-0.00084,0.00462,0.00266
1790809670.5603049,-0.01721,0.01069,-1.00278,0.00122,0.00162,0.00553
1790809670.58382,-0.01776,0.00924,-1.00234,-0.00294,0.00103,0.0013
1790809670.5975401,-0.01841,0.01083,-1.00261,-0.00103,0.00345,0.00035
1790809670.6227992,-0.0199,0.0096,-1.00326,0.0014,0.00022,0.00584
1790809670.6399958,-0.01984,0.01149,-1.00203,-0.0009,0.00131,0.00395
1790809670.6616619,-0.01833,0.00998,-1.0016,0.00048,0.00394,0.00304
1790809670.689779,-0.01705,0.01079,-1.0031,-0.00086,0.00315,0.00311
1790809670.71907,-0.01666,0.01094,-1.00202,-0.00092,0.00161,0.00205
1790809670.761534,-0.01579,0.01192,-1.0042,0.00262,0.00083,0.00287
1790809670.780698,-0.01469,0.01,-1.00178,-0.00085,0.00338,0.00134
1790809670.800887,-0.01518,0.01059,-0.99961,0.00061,0.00273,0.00381
1790809670.8356721,-0.01558,0.01079,-1.00103,-0.00023,0.00283,0.00238
1790809670.839031,-0.01671,0.01097,-1.00213,0.00318,0.00286,0.00396
1790809670.8594,-0.0169,0.01222,-1.00218,-0.0006,0.00121,0.00401
1790809670.8820522,-0.01713,0.01062,-1.00085,-0.00011,0.00311,0.00288
1790809670.900057,-0.01828,0.01143,-0.99974,-0.00019,0.00193,0.0029
1790809670.919919,-0.0196,0.00932,-1.00139,-0.00029,0.00192,0.00331
1790809670.940245,-0.01805,0.01134,-1.00295,6e-05,-0.0004,0.0022
1790809670.9601889,-0.01793,0.01178,-1.00115,0.00088,0.00299,0.00119
1790809670.998882,-0.01848,0.0111,-1.00035,-4e-05,0.00212,0.00199
1790809671.018986,-0.01744,0.01145,-1.00122,-0.00078,0.00158,0.00012
1790809671.044267,-0.0154,0.00814,-1.00038,-0.00013,0.00159,0.0039
1790809671.063004,-0.01416,0.01188,-1.00076,-0.00019,0.0022,0.00357
1790809671.081833,-0.01437,0.0106,-1.00215,-0.00152,0.00322,0.00111
1790809671.098506,-0.01518,0.00891,-1.00358,-0.00113,0.00087,0.00448
1790809671.11862,-0.01587,0.0118,-1.00227,0.00122,0.00112,0.00165
1790809671.1375182,-0.01787,0.0088,-1.00061,0.00081,0.00223,0.00748
1790809671.164074,-0.01963,0.01052,-1.00195,-0.00108,0.0027,0.00341
1790809671.188947,-0.02002,0.00939,-1.00272,-0.00107,0.00123,0.00463
1790809671.1998131,-0.01821,0.00945,-1.00074,0.00202,0.00227,0.00232
1790809671.220774,-0.01673,0.00879,-1.0015,0.00091,0.00389,0.0022
1790809671.239724,-0.01607,0.00978,-1.00313,-0.00032,0.00488,0.00441
1790809671.2640069,-0.015,0.01233,-1.00284,0.00147,0.00444,0.00133
1790809671.282204,-0.0163,0.00962,-1.0011,0.00025,0.00308,0.00378
1790809671.303065,-0.01723,0.01102,-1.00134,0.00203,0.00066,0.00484
1790809671.322077,-0.01772,0.01018,-1.00239,0.00156,0.00169,0.00264
1790809671.3416781,-0.01718,0.01043,-1.00341,-0.00034,0.00251,0.0028
1790809671.362944,-0.01633,0.01005,-1.00313,0.00031,-3e-05,0.00398
1790809671.398665,-0.01607,0.00974,-1.00285,-0.00236,0.00273,0.00517
1790809671.418431,-0.01651,0.01039,-1.0026,-0.00131,0.0025,0.00108
1790809671.441449,-0.01656,0.01202,-1.00174,-0.00111,0.00275,0.00149
1790809671.4580522,-0.01791,0.0088,-1.00251,-0.00106,0.00138,0.00495
1790809671.4810429,-0.01817,0.01121,-1.00158,-0.00032,0.00234,-0.00072
1790809671.498411,-0.01863,0.01152,-1.00073,-0.00042,0.00209,0.00325
1790809671.5184839,-0.01854,0.01002,-1.00169,0.00167,-0.00021,0.00538
1790809671.539383,-0.01693,0.01292,-1.00033,-0.00376,0.00084,0.00164
1790809671.558293,-0.01775,0.00895,-1.00023,-0.00013,0.00104,0.00525
1790809671.58324,-0.01573,0.00974,-1.00127,-0.00026,0.00228,0.00123
1790809671.599373,-0.01602,0.00945,-1.00105,0.00126,0.00283,0.00579
1790809671.6207502,-0.01553,0.0113,-1.00138,-0.00241,0.00371,0.00063
1790809671.641731,-0.016,0.01201,-1.00228,0.00081,0.00055,0.00392
1790809671.655411,-0.01776,0.01025,-1.00296,-0.00147,0.001,0.00374
1790809671.686578,-0.01703,0.01039,-1.00175,-1e-05,0.00427,0.00484
1790809671.718582,-0.01672,0.01022,-1.00086,-0.00304,0.002,0.00247
1790809671.739087,-0.0164,0.01044,-1.00119,0.001,0.00226,0.00397
1790809671.759485,-0.01709,0.00996,-1.00165,-0.00141,0.00184,0.00066
1790809671.783084,-0.01882,0.01076,-1.0015,-0.0004,0.00435,0.00345
1790809671.794265,-0.0192,0.01053,-1.00108,0.00204,0.00499,0.00279
1790809671.819764,-0.01621,0.01219,-1.00051,0.00207,0.00206,0.00261
1790809671.8443258,-0.01672,0.0091,-1.00068,-0.00017,0.00035,0.00544
1790809671.859422,-0.01656,0.01105,-1.00074,0.00157,-0.00058,0.00074
1790809671.895401,-0.01709,0.01128,-1.00186,-0.00164,0.00307,0.00502
1790809671.900291,-0.01649,0.00844,-1.00184,-0.0006,0.00355,0.00437
1790809671.9407868,-0.01621,0.01188,-1.00161,0.00246,0.00083,9e-05
1790809671.955353,-0.0159,0.01052,-1.00121,-0.00043,0.00234,0.00309
1790809671.984134,-0.01667,0.01015,-1.00233,-0.00164,0.00377,0.00305
1790809671.999037,-0.01825,0.01006,-1.00191,3e-05,0.00215,0.00359
1790809672.018946,-0.01799,0.01016,-1.00147,-0.00118,0.00345,0.00432
1790809672.038683,-0.01777,0.01009,-1.00216,-0.00093,0.00278,0.00323
1790809672.059146,-0.01627,0.01067,-1.00184,0.00034,0.00258,0.00292
1790809672.0830898,-0.01587,0.00993,-1.00083,-0.00086,0.00216,0.00523
1790809672.095551,-0.0157,0.01013,-1.00098,0.00154,0.00064,0.00381
1790809672.1231968,-0.01496,0.01076,-1.00163,-0.00072,0.00274,0.00227
1790809672.140963,-0.01609,0.01023,-1.00073,0.00048,0.00126,0.00572
1790809672.1606,-0.01708,0.00944,-1.00145,0.00194,0.00152,0.00479
1790809672.189611,-0.01723,0.01115,-1.00154,0.00074,0.00141,0.00305
1790809672.196565,-0.01836,0.01056,-1.00379,0.00158,0.00345,0.00444
1790809672.2227042,-0.01905,0.00957,-1.00555,-0.00086,0.00086,0.00264
1790809672.238868,-0.01983,0.00872,-1.00322,0.00072,0.00221,0.00454
1790809672.263715,-0.01863,0.01022,-1.0006,-0.00353,0.00344,0.00393
1790809672.283034,-0.01793,0.01126,-1.00169,0.00128,0.00322,0.00343
1790809672.30159,-0.01761,0.0098,-1.00234,-0.00012,0.00211,0.00616
1790809672.320221,-0.01571,0.01042,-1.00282,-0.00015,0.0007,0.00269
1790809672.347404,-0.0163,0.00951,-1.00193,-0.00309,0.00142,0.00426
1790809672.397986,-0.01525,0.01005,-1.00094,0.00192,0.00113,0.0045
1790809672.422387,-0.01709,0.01012,-1.00174,-0.00037,0.00258,0.0033
1790809672.440189,-0.01758,0.01107,-1.00313,-0.00082,0.00118,0.00324
1790809672.458663,-0.01865,0.01073,-1.00141,-0.00015,0.00325,0.00213
1790809672.483047,-0.01731,0.01042,-1.00271,0.00095,0.00419,0.00224
1790809672.498985,-0.01713,0.01084,-1.00313,0.00243,0.00343,0.00331
1790809672.5200891,-0.01817,0.01008,-1.00256,0.00036,0.00331,0.00329
1790809672.54584,-0.01744,0.01022,-1.00289,-0.0001,0.00369,0.00522
1790809672.559764,-0.01744,0.01189,-1.00288,-0.00111,0.00296,0.00095
1790809672.580863,-0.01733,0.00865,-1.00346,-0.00161,0.00356,0.00259
1790809672.59886,-0.01602,0.01102,-1.00301,0.00034,0.0039,0.00114
1790809672.6221492,-0.01641,0.01131,-1.00191,-0.00149,0.00082,0.00357
1790809672.6413372,-0.01811,0.00821,-1.00288,-0.0036,-0.00022,0.00431
1790809672.7171142,-0.01697,0.01151,-1.00261,-4e-05,0.00034,0.00262
1790809672.722107,-0.01776,0.00947,-1.00107,-0.00203,0.00263,0.00252
1790809672.736259,-0.01736,0.01075,-1.00261,-0.00191,0.00209,0.00171
1790809672.830775,-0.01764,0.00967,-1.00215,0.00108,0.0027,0.00599
1790809672.833217,-0.01759,0.01013,-1.00222,-0.00076,0.0013,0.00206
1790809672.835136,-0.01715,0.01106,-1.00136,-0.00221,0.00396,0.00315
1790809672.841085,-0.01731,0.01074,-1.0022,0.00213,0.00211,0.00209
1790809672.946012,-0.01922,0.00974,-1.00129,0.00183,0.00203,0.00286
1790809672.949685,-0.01818,0.01118,-1.00112,0.00029,0.001,0.00257
1790809672.955565,-0.01851,0.01122,-1.00233,0.00038,0.00454,0.00313
1790809672.961808,-0.01572,0.00956,-1.00167,6e-05,0.00345,0.00375
1790809673.128387,-0.01585,0.01011,-1.0031,0.00243,0.00276,0.00281
1790809673.134156,-0.01566,0.0117,-1.0015,-0.00254,0.00605,0.00147
1790809673.13787,-0.01785,0.0099,-1.00212,-0.00097,-0.00022,0.00163
1790809673.140256,-0.01805,0.01115,-1.00385,-0.00144,0.00282,0.00368
1790809673.1419032,-0.01881,0.01023,-1.00064,-0.0005,0.00119,0.00254
1790809673.146524,-0.01892,0.00983,-1.00088,0.00012,0.00084,0.00357
1790809673.305325,-0.01796,0.00975,-1.00177,-0.00167,0.00205,0.0014
1790809673.315499,-0.01582,0.01131,-1.0008,-0.00233,0.00348,0.0029
1790809673.31812,-0.0157,0.00931,-1.00076,0.00138,0.00113,0.00302
1790809673.3227599,-0.01862,0.00888,-1.00377,-0.00051,0.00349,0.00219
1790809673.400723,-0.01862,0.01127,-1.00096,0.00069,0.00303,0.00049
1790809673.419442,-0.01715,0.00964,-1.00098,0.00106,0.00367,0.00325
1790809673.580797,-0.01683,0.01011,-1.00289,-0.00073,0.00313,0.00548
1790809673.584756,-0.01613,0.00956,-1.00154,-0.0009,0.0008,0.00346
1790809673.5878,-0.01561,0.01019,-1.00184,-0.00043,0.00496,0.00381
1790809673.591965,-0.01746,0.01036,-0.99926,-0.00162,0.00274,0.00235
1790809673.600746,-0.01854,0.01048,-1.0014,-0.00092,-0.00081,0.00379
1790809673.696047,-0.01799,0.01289,-1.00059,-0.00081,0.00333,-0.00043
1790809673.7003741,-0.01792,0.01019,-1.00113,-0.00214,0.00282,0.00499
1790809673.843616,-0.01545,0.01119,-1.00154,0.0015,0.00474,0.0007
1790809673.850345,-0.01622,0.0101,-1.0022,-0.00269,0.00036,0.00195
1790809673.853698,-0.01701,0.00935,-1.0017,-0.00059,0.00435,0.00439
1790809673.862038,-0.01647,0.01054,-1.0018,-8e-05,0.00175,0.00422
1790809673.8871958,-0.01753,0.01096,-1.00255,-0.00232,0.00391,0.00369
1790809674.01573,-0.01842,0.01072,-1.00184,-0.00276,0.00073,0.0025
1790809674.019176,-0.01811,0.01044,-1.0021,-0.00129,0.00097,0.00157
1790809674.020189,-0.01843,0.01027,-1.00093,-0.00091,0.00374,0.00207
1790809674.0441449,-0.01618,0.01084,-1.00202,-0.00101,0.00329,0.00273
1790809674.1904771,-0.01722,0.01014,-1.00331,-0.00311,0.00235,0.00336
1790809674.193932,-0.01785,0.00923,-1.00153,0.00099,0.00201,0.00331
1790809674.197334,-0.01792,0.00978,-1.00103,-0.00074,0.00459,0.00238
1790809674.203419,-0.0158,0.0085,-1.00156,-0.00097,0.00342,0.00491
1790809674.353463,-0.01555,0.00973,-1.00242,0.00027,0.00297,0.00528
1790809674.356517,-0.01778,0.0116,-1.00055,0.00017,0.00105,0.00412
1790809674.360472,-0.01829,0.00928,-1.00137,-0.0004,0.00284,0.00339
1790809674.383821,-0.01603,0.00987,-1.00222,-0.00105,0.00286,0.00256
1790809674.441513,-0.01641,0.00852,-1.00298,0.00176,0.00122,0.00392
1790809674.467089,-0.01653,0.00954,-1.00148,-0.00025,0.00222,0.00313
1790809674.472898,-0.01701,0.01155,-1.002,-0.00129,0.00256,0.00199
1790809674.498229,-0.01603,0.01049,-1.00161,-0.00293,0.00153,0.00141
1790809674.577329,-0.01698,0.01176,-1.00265,0.00105,0.00155,0.00385
1790809674.594091,-0.01569,0.00992,-1.00406,-0.00043,0.00286,0.00331
1790809674.595892,-0.01408,0.01093,-1.00174,-0.00043,-0.00068,0.00135
1790809674.59901,-0.01692,0.00897,-1.00196,-0.00247,0.00413,0.00349
1790809674.7364962,-0.01898,0.00954,-1.00212,-0.00128,-0.00097,0.00662
1790809674.73951,-0.01801,0.01009,-1.00168,0.00132,0.00337,0.00357
1790809674.742996,-0.01853,0.01037,-1.00076,0.00343,0.00067,0.00295
1790809674.747589,-0.01569,0.00999,-1.0017,-0.00282,0.00152,0.00384
1790809674.761444,-0.01454,0.00991,-1.00127,-0.00157,0.002,0.00289
1790809674.908633,-0.01519,0.01019,-1.0022,-0.00355,0.00346,0.00231
1790809674.910507,-0.01689,0.0092,-1.00113,-0.0026,-0.00076,0.00264
1790809674.913663,-0.0168,0.01014,-1.00143,0.0012,0.00291,0.00234
1790809674.9155872,-0.01885,0.01016,-1.00142,-0.00299,0.0013,0.00404
1790809674.9444401,-0.01744,0.01008,-1.00416,0.00283,7e-05,0.00411
1790809675.0235572,-0.01704,0.00952,-1.00181,-9e-05,0.00216,0.00246
1790809675.041898,-0.01741,0.01033,-1.00332,-0.00148,0.00129,0.00518
1790809675.176571,-0.01828,0.00988,-1.00225,0.00085,0.00266,-0.00028
1790809675.180649,-0.01827,0.0099,-1.00116,-0.00083,0.00064,0.00401
1790809675.1921542,-0.01843,0.00857,-1.00137,-0.00135,0.003,0.00319
1790809675.354437,-0.01674,0.01034,-1.0017,-0.00151,0.00128,0.00435
1790809675.361011,-0.01724,0.0109,-1.00214,-0.0021,0.00187,0.00237
1790809675.3835661,-0.01714,0.01173,-1.00183,0.00045,2e-05,0.00285
1790809675.427217,-0.01535,0.01083,-1.00103,0.00252,0.00214,0.00383
1790809675.563107,-0.01681,0.01097,-1.00186,-0.00091,0.00177,0.00381
1790809675.565375,-0.01937,0.00831,-1.00204,-0.00366,0.00269,0.00302
1790809675.569998,-0.02059,0.00911,-1.00137,0.00063,0.00023,0.00519
1790809675.5796301,-0.01699,0.01111,-1.00019,-0.00128,0.00306,0.00347
1790809675.602375,-0.01649,0.0095,-1.00036,-0.0013,0.00367,0.00283
1790809675.729047,-0.01651,0.00991,-1.00136,0.00053,0.00299,0.00172
1790809675.855423,-0.01559,0.00916,-1.00134,-0.00081,0.00314,0.00375
1790809675.8597069,-0.01968,0.0095,-1.00072,0.0001,0.00183,0.00382
1790809675.876561,-0.0178,0.01079,-1.00262,-0.00326,0.00235,0.00276
1790809675.8862588,-0.01703,0.011,-1.00097,0.00125,0.00188,0.00368
1790809676.042732,-0.01685,0.00818,-1.00243,0.00092,0.00209,0.00413
1790809676.045152,-0.01856,0.00948,-1.0015,0.0003,0.00145,0.00573
1790809676.04774,-0.01841,0.01178,-1.00223,0.00011,-0.00011,0.00068
1790809676.0621061,-0.01876,0.01101,-1.00308,-0.00304,0.00331,0.00356
1790809676.1572428,-0.01729,0.01152,-1.00159,-0.0009,0.00152,0.00244
1790809676.159363,-0.01515,0.01037,-0.99998,-0.00124,0.00033,0.00141
1790809676.1669078,-0.01382,0.01095,-1.00035,-0.00146,0.00282,-5e-05
1790809676.3345249,-0.01669,0.01077,-1.00194,0.00091,0.00231,0.00233
1790809676.3408158,-0.01965,0.00932,-1.00303,-0.00064,0.00404,0.00574
1790809676.344057,-0.01969,0.00953,-1.00236,-0.00129,0.00303,0.00188
1790809676.348267,-0.018,0.01008,-1.0031,-0.00247,0.00253,0.0056
1790809676.3681421,-0.01473,0.01026,-1.0031,-0.0007,0.00216,0.00476
1790809676.511275,-0.01532,0.01019,-1.00111,0.0008,0.00026,0.00267
1790809676.5161731,-0.018,0.01099,-1.00188,-0.0028,0.00318,0.004
1790809676.519021,-0.01797,0.01119,-1.00306,-0.00043,0.00164,0.0024
1790809676.539192,-0.01828,0.00992,-1.00274,-0.00182,0.00425,0.00307
1790809676.6751082,-0.01922,0.00913,-1.00219,-0.00079,0.00418,0.00312
1790809676.6802182,-0.01489,0.00973,-1.00235,-0.00054,0.0051,0.00289
1790809676.6854908,-0.016,0.00935,-1.00174,-0.00026,0.00401,0.00665
1790809676.689918,-0.01548,0.0103,-1.00161,-0.00272,0.00059,0.00236
1790809676.7057788,-0.01575,0.01019,-1.00005,0.00052,0.00147,0.00197
1790809676.776455,-0.018,0.0098,-1.0029,-0.00014,-0.00202,0.00348
1790809676.7802722,-0.0183,0.01083,-1.00061,-0.0009,0.0046,0.00253
1790809676.810008,-0.01809,0.01153,-1.00228,-0.00078,-0.00026,0.00275
1790809676.821561,-0.01704,0.00886,-1.00343,0.00051,0.00297,0.00265
1790809676.95464,-0.01738,0.00973,-1.00396,-0.00049,0.003,0.00278
1790809676.9580212,-0.01687,0.0097,-1.00119,-0.0024,0.00251,0.00551
1790809676.96167,-0.018,0.0106,-1.0034,-0.00031,0.00291,0.00334
1790809676.980372,-0.01786,0.01021,-1.00109,-0.00126,0.00022,0.00327
1790809677.1427572,-0.01825,0.00962,-1.00172,0.00092,0.0013,0.00382
1790809677.1453319,-0.01652,0.01088,-1.00141,-0.00309,0.00137,7e-05
1790809677.1490629,-0.01496,0.01028,-1.00264,0.00159,0.00129,0.00167
1790809677.152229,-0.01548,0.00967,-1.00123,-0.00143,0.00033,0.00128
1790809677.16204,-0.01705,0.01146,-1.00166,0.00134,0.00164,0.00398
1790809677.312278,-0.01872,0.0095,-1.00018,0.00086,0.00263,0.00173
1790809677.314195,-0.01785,0.01027,-1.00301,0.00157,0.00122,0.00325
1790809677.316138,-0.01774,0.01161,-1.00139,-0.00259,0.00197,0.00218
1790809677.317893,-0.01633,0.00962,-1.00177,0.0026,0.003,0.0038
1790809677.3259351,-0.01625,0.01085,-1.00227,0.00104,0.00288,0.00201
1790809677.44816,-0.01677,0.01062,-1.00323,-0.00065,0.00173,0.00209
1790809677.466913,-0.01614,0.01029,-1.00143,-0.0006,0.00412,0.00308
1790809677.488675,-0.01615,0.01068,-1.00118,-0.00214,0.00501,0.00392
1790809677.624822,-0.01695,0.00894,-0.9999,0.00027,0.00416,0.00172
1790809677.6340249,-0.01651,0.01015,-1.00264,0.00013,0.00279,0.00648
1790809677.642058,-0.0175,0.00949,-1.00144,0.00029,0.00159,0.00578
1790809677.670919,-0.0169,0.01095,-1.00355,-0.00056,0.00291,0.0003
1790809677.795351,-0.01679,0.00998,-1.00401,-7e-05,0.00289,0.00093
1790809677.799696,-0.01793,0.01045,-1.00224,-0.00057,0.00494,0.00771
1790809677.801922,-0.01696,0.01142,-1.00268,0.00205,0.00243,0.00251
1790809677.807791,-0.01741,0.01161,-1.00289,-0.00093,0.00083,0.00035
1790809677.8406742,-0.01774,0.00985,-1.00262,0.00233,0.00126,0.00195
1790809677.890359,-0.01673,0.00919,-1.00094,-0.00022,0.00255,0.00211
1790809677.9276211,-0.01728,0.00884,-1.00216,-0.0001,0.00149,0.00571
1790809678.0631309,-0.01698,0.01074,-1.00193,0.00119,0.00188,0.00036
1790809678.067182,-0.01633,0.01145,-1.00194,-0.00237,0.004,0.00246
1790809678.0723999,-0.01633,0.01145,-1.00194,-0.00237,0.004,0.00246
1790809678.076588,-0.01927,0.01035,-1.00207,-0.00276,0.0023,0.00083
1790809678.0781472,-0.01868,0.0094,-1.00217,-0.00052,0.0032,0.00665
1790809678.079937,-0.01744,0.01087,-1.00377,0.00086,0.00248,0.00184
1790809678.100241,-0.01599,0.01016,-1.00345,1e-05,0.0028,0.00206
1790809678.24285,-0.01631,0.00921,-1.0023,0.0013,0.00269,0.00363
1790809678.244353,-0.01635,0.01158,-1.00067,0.00043,0.00047,0.00143
1790809678.248972,-0.01562,0.01032,-1.00265,0.00268,0.00295,0.00115
1790809678.25238,-0.01573,0.00925,-1.0019,-4e-05,0.0005,0.00295
1790809678.272106,-0.0165,0.0107,-1.00215,-0.00276,0.00096,0.00166
1790809678.2827861,-0.01731,0.01117,-1.00169,-0.00136,0.00087,0.0029
1790809678.303819,-0.01789,0.01067,-1.00227,0.00083,0.00193,0.0016
1790809678.332333,-0.01904,0.01025,-1.00059,-0.00179,0.0027,0.00253
1790809678.342008,-0.01899,0.00898,-1.00058,0.00177,0.00276,0.00301
1790809678.36445,-0.01888,0.01054,-1.00134,-0.0005,0.00224,0.00215
1790809678.3860102,-0.01769,0.01022,-1.00362,0.00179,0.00372,0.00287
1790809678.4031308,-0.01465,0.01073,-1.00236,0.00083,0.0031,0.00338
1790809678.4355168,-0.01429,0.01124,-1.00194,-2e-05,0.00355,0.00441
1790809678.439166,-0.01478,0.01051,-1.00251,-0.00173,0.00174,0.00474
1790809678.468765,-0.01552,0.01033,-1.00107,-0.00081,0.00259,0.0012
1790809678.4810839,-0.01699,0.00974,-1.00191,0.00191,0.00171,0.00176
1790809678.499029,-0.01752,0.01106,-1.00228,0.00019,0.00142,0.00348
1790809678.532028,-0.01801,0.01176,-1.00265,-0.00136,0.00423,0.003
1790809678.542186,-0.01857,0.00972,-1.00117,0.00042,0.00346,0.00364
1790809678.568043,-0.01785,0.00921,-1.00091,0.00016,0.00311,0.0056
1790809678.5820868,-0.01685,0.01108,-1.00064,-0.0011,0.00412,0.00341
1790809678.6008599,-0.01649,0.00987,-1.00225,-0.00255,0.00156,0.00419
1790809678.638361,-0.01686,0.01078,-1.00325,0.00062,0.00399,0.00285
1790809678.669814,-0.01681,0.01104,-1.00195,-0.00343,0.0012,0.00192
1790809678.684138,-0.01586,0.01105,-1.00436,-0.00202,0.00304,0.00354
1790809678.70442,-0.01586,0.0113,-1.0036,-0.00013,0.00166,0.00329
1790809678.7459142,-0.01729,0.01196,-1.0021,0.00136,0.00186,0.00469
1790809678.7613351,-0.01814,0.01007,-1.00342,0.00333,0.00227,0.00164
1790809678.779999,-0.01766,0.01055,-1.00215,0.0013,0.0029,0.00133
1790809678.802519,-0.01595,0.01064,-1.00116,0.00062,-0.00058,0.00444
1790809678.822592,-0.01523,0.01115,-1.00365,-0.00379,0.00281,0.00249
1790809678.8407512,-0.01585,0.01052,-1.00399,-0.00135,-0.00126,0.00363
1790809678.857793,-0.01512,0.01035,-1.00193,-0.00181,0.00193,0.0038
1790809678.880533,-0.01637,0.00946,-1.00113,0.00147,0.00296,0.00437
1790809678.903807,-0.01782,0.01058,-1.00038,-0.00031,0.00179,0.00372
1790809678.946615,-0.01784,0.00922,-1.00188,-0.00172,0.00208,0.00421
1790809678.968962,-0.02011,0.0098,-1.0027,0.00162,0.0016,0.00482
1790809678.980777,-0.02081,0.01012,-1.00238,0.00237,0.00222,0.00292
1790809679.006548,-0.01811,0.01065,-1.00265,0.00033,0.00331,0.00226
1790809679.021044,-0.01595,0.00987,-1.00082,0.001,0.00293,0.00205
1790809679.04204,-0.0155,0.01086,-1.00126,-0.00304,0.00092,0.00405
1790809679.062182,-0.0147,0.01015,-1.00173,-0.00204,0.00289,0.00341
1790809679.081555,-0.01526,0.00979,-1.00227,-0.00156,0.00138,0.00375
1790809679.1125288,-0.01607,0.0104,-1.00287,-0.00166,0.00184,0.00105
1790809679.121299,-0.01643,0.01008,-1.00241,-0.00138,0.00152,0.00558
1790809679.144331,-0.01729,0.01054,-1.00197,0.00084,0.00385,0.00329
1790809679.15964,-0.01685,0.01213,-1.00216,0.00143,0.00406,0.00361
1790809679.193494,-0.01809,0.00972,-1.00013,-0.00224,0.00254,0.00484
1790809679.2143612,-0.01914,0.0096,-1.00097,-0.00099,0.00194,0.00294
1790809679.222133,-0.01738,0.01147,-1.00332,0.0002,0.00013,0.00162
1790809679.2477329,-0.01712,0.00979,-1.00221,-0.00138,0.00189,0.00431
1790809679.261516,-0.01672,0.01049,-1.00144,0.00089,0.00392,0.00308
1790809679.2957,-0.01603,0.00963,-1.00019,0.00175,0.00336,0.00309
1790809679.320296,-0.01577,0.01064,-1.00184,0.00135,0.00075,0.00282
1790809679.3488052,-0.01518,0.01146,-1.00284,0.00178,0.00473,0.00252
1790809679.356242,-0.0156,0.00846,-1.0025,-0.0011,0.00264,0.00529
1790809679.3797781,-0.0166,0.0101,-1.00009,-0.00043,0.00335,0.00256
1790809679.402794,-0.01673,0.01113,-1.00134,3e-05,0.00305,0.00191
1790809679.421709,-0.01875,0.00928,-1.00276,-0.00015,0.00221,0.0034
1790809679.453661,-0.01912,0.01093,-1.00113,-0.00114,0.00191,0.00072
1790809679.4575412,-0.01741,0.01036,-1.00323,-0.00138,0.00063,0.00396
1790809679.491192,-0.0171,0.01065,-1.00309,-0.00078,0.00208,0.00511
1790809679.504341,-0.01719,0.01063,-1.00263,0.00084,0.00211,0.00259
1790809679.552578,-0.0161,0.0108,-1.00234,-0.00155,-0.00032,0.00237
1790809679.588091,-0.0146,0.01034,-1.0031,0.00013,0.00224,0.00105
1790809679.60208,-0.01501,0.01145,-1.00234,-0.00335,0.0028,0.00501
1790809679.620814,-0.01642,0.01115,-1.00341,0.00351,0.00208,0.00403
1790809679.657534,-0.01833,0.01027,-1.00259,-0.00126,0.00032,0.0034
1790809679.661474,-0.01698,0.01119,-1.00069,-0.00095,0.00394,0.00171
1790809679.692342,-0.01675,0.01125,-1.00174,-0.00283,0.00202,0.00401
1790809679.706429,-0.0183,0.00966,-1.00523,0.00044,0.00115,0.00359
1790809679.731516,-0.01869,0.00918,-1.00328,0.00108,0.00254,0.00392
1790809679.7832499,-0.0188,0.00955,-1.00236,0.00139,0.00385,0.00228
1790809679.810675,-0.01748,0.01122,-1.00234,-0.00056,0.0042,0.0035
1790809679.820404,-0.01612,0.01174,-1.00237,0.00076,0.00062,0.00341
1790809679.8440142,-0.01538,0.01013,-1.00239,-0.00045,-0.00021,0.00365
1790809679.85307,-0.0151,0.01129,-1.00354,-0.00042,0.00288,0.0033
1790809679.880449,-0.01573,0.01005,-1.00331,0.00207,0.00334,0.0036
1790809679.907128,-0.01612,0.0105,-1.00265,-0.00124,0.0019,0.00349
1790809679.928423,-0.01673,0.0119,-1.00129,-0.00054,0.00191,0.00278
1790809679.959859,-0.02051,0.01055,-1.00163,-0.00062,0.00014,0.00032
1790809679.9831629,-0.02041,0.01038,-1.0027,0.00042,0.00304,0.00295
1790809680.010566,-0.01963,0.01038,-1.00239,-0.00079,0.00198,0.00395
1790809680.0201879,-0.01648,0.01208,-1.00302,0.00129,0.00281,0.00555
1790809680.052533,-0.01495,0.00983,-1.00362,-0.00216,0.00062,0.00489
1790809680.0615628,-0.01442,0.01236,-1.00225,0.00205,0.00054,0.00185
1790809680.0863302,-0.01401,0.01235,-1.00197,0.00231,0.00144,0.00334
1790809680.113434,-0.01475,0.00764,-1.00079,0.00026,0.00161,0.00781
1790809680.154069,-0.01419,0.01142,-1.00152,-0.00046,0.00047,0.00153
1790809680.1604118,-0.0189,0.00922,-1.00318,0.00021,0.00295,0.00512
1790809680.188786,-0.0189,0.00922,-1.00318,0.00021,0.00295,0.00512
1790809680.202584,-0.02018,0.01048,-1.00136,-0.0002,0.00267,0.00488
1790809680.245565,-0.01856,0.01057,-1.00418,-0.00121,0.0016,0.00268
1790809680.261916,-0.01771,0.01001,-1.00138,-0.00189,0.00189,0.00474
1790809680.2898738,-0.01771,0.01001,-1.00138,-0.00189,0.00189,0.00474
1790809680.302329,-0.0155,0.01143,-1.00382,-0.0026,0.0017,0.00473
1790809680.324245,-0.01611,0.00996,-1.00108,0.00094,0.00447,0.00081
1790809680.3415732,-0.01694,0.00914,-1.00147,0.0004,-6e-05,0.00474
1790809680.3644009,-0.01765,0.01001,-1.00326,-0.00035,0.00137,0.00396
1790809680.39728,-0.01787,0.00949,-1.00271,-0.00025,0.00304,0.00365
1790809680.429558,-0.01752,0.00843,-1.00236,0.00141,0.00365,0.00455
1790809680.439754,-0.018,0.0116,-1.00143,-0.00139,0.0008,2e-05
1790809680.46619,-0.01884,0.01118,-1.00009,-0.00397,0.00301,0.00447
1790809680.498139,-0.01756,0.0116,-1.00237,0.00064,0.00314,0.00174
1790809680.502906,-0.01757,0.01043,-1.00346,0.00111,0.00066,0.00339
1790809680.53167,-0.01838,0.00967,-1.00147,0.00225,0.00276,0.0061
1790809680.549681,-0.01778,0.01226,-1.00137,0.00203,0.00155,0.00349
1790809680.5773451,-0.01723,0.0114,-1.003,0.00154,-0.00099,0.0037
1790809680.61724,-0.01727,0.01025,-1.00016,-0.00041,0.00117,0.004
1790809680.647876,-0.01675,0.01097,-1.00076,0.00063,0.00217,0.00382
1790809680.660214,-0.01615,0.00921,-1.00188,-0.00245,0.00313,0.0028
1790809680.689982,-0.01567,0.01134,-1.00231,-0.00083,0.00386,0.00221
1790809680.702194,-0.01785,0.01238,-1.00192,0.00115,0.00053,0.0024
1790809680.730958,-0.0195,0.0121,-1.00234,-0.00217,0.00116,0.00441
1790809680.7407072,-0.02013,0.00825,-1.0028,-0.00139,0.00081,0.00616
1790809680.766291,-0.01866,0.01276,-1.0023,0.00075,0.00277,-0.00037
1790809680.798781,-0.01941,0.00967,-1.0017,0.00111,0.0013,0.00233
1790809680.850584,-0.01821,0.01196,-1.00261,0.00126,0.0022,0.00069
1790809680.8677099,-0.01544,0.01003,-1.00261,-0.00079,0.00285,0.00388
1790809680.898855,-0.01486,0.01146,-1.0021,2e-05,0.0029,0.00054
1790809680.937388,-0.01492,0.01017,-1.00189,-0.00276,0.0016,0.0048
1790809680.9415832,-0.01505,0.00886,-1.00206,-0.00047,0.00093,0.0042
1790809680.9724538,-0.01788,0.01031,-1.00192,-0.00249,0.00455,0.00433
1790809680.979635,-0.0189,0.01036,-1.00096,0.00023,0.00112,0.00208
1790809681.014035,-0.01836,0.01074,-1.0013,-0.00205,0.00291,0.00319
1790809681.020844,-0.01817,0.01034,-1.00359,0.00065,0.00034,0.00317
1790809681.0465841,-0.01794,0.01147,-1.00417,-0.00072,0.00136,0.00381
1790809681.080471,-0.01623,0.01037,-1.00227,-0.00097,0.00099,0.00333
1790809681.1204622,-0.01638,0.01066,-1.00367,-0.00117,0.00131,0.00211
1790809681.1572638,-0.01659,0.01018,-1.00308,-0.00224,0.00425,0.0038
1790809681.159841,-0.01655,0.00994,-1.0038,-8e-05,0.00401,0.00324
1790809681.2005498,-0.01621,0.00918,-1.0033,-0.00219,0.00087,0.00571
1790809681.229395,-0.01797,0.01099,-1.0016,0.0006,0.00245,0.00401
1790809681.2407029,-0.01796,0.01111,-1.00207,0.00119,0.00403,0.00265
1790809681.263581,-0.01774,0.01071,-1.00424,0.00054,0.00157,0.00104
1790809681.294755,-0.01747,0.01022,-1.00281,0.0011,0.00391,0.00242
1790809681.302183,-0.01852,0.00916,-1.00175,-0.00029,-0.00083,0.00317
1790809681.327341,-0.01742,0.0101,-1.00282,-0.00049,0.00373,0.00266
1790809681.344071,-0.01786,0.01048,-1.00101,-8e-05,0.00038,0.00253
1790809681.3694441,-0.01791,0.01122,-1.00211,0.00189,0.00191,0.00478
1790809681.380382,-0.01661,0.01178,-1.00446,-0.0025,0.00378,0.00313
1790809681.406165,-0.01625,0.00871,-1.00294,-0.00171,0.00474,0.00418
1790809681.4399738,-0.01684,0.00965,-1.0022,-0.00036,0.00312,0.00364
1790809681.4747672,-0.01678,0.01135,-1.00108,-0.00084,0.00245,0.00259
1790809681.476788,-0.017,0.01038,-1.00418,-0.00033,0.0026,0.00521
1790809681.512019,-0.01671,0.01106,-1.0038,-0.00087,0.0018,0.00263
1790809681.519487,-0.01842,0.01021,-1.00171,-0.00129,0.00063,0.00468
1790809681.543933,-0.01917,0.0125,-1.00216,-0.00207,0.00415,0.00245
1790809681.5632849,-0.01787,0.01067,-1.00388,-0.00152,0.00104,0.00239
1790809681.58543,-0.01691,0.01064,-1.00447,-0.00053,0.00207,0.00467
1790809681.6242602,-0.01679,0.01118,-1.00311,-0.00243,0.00509,0.00202
1790809681.6255722,-0.01669,0.01153,-1.00325,0.00099,0.00415,0.00331
1790809681.6589592,-0.01493,0.01171,-1.00221,0.0021,0.00211,0.00416
1790809681.694282,-0.01511,0.01054,-1.00296,-0.00124,0.00298,0.00256
1790809681.703926,-0.01698,0.01161,-1.00465,-0.00152,0.00287,0.00196
1790809681.729609,-0.01819,0.00997,-1.00405,0.0005,0.00192,0.00443
1790809681.764092,-0.01774,0.01112,-1.00361,0.00111,0.00277,0.0028
1790809681.796133,-0.0206,0.0104,-1.00412,-8e-05,0.00054,0.00273
1790809681.8013399,-0.02017,0.01147,-1.00402,-0.00025,0.00402,0.00492
1790809681.8341131,-0.01877,0.01039,-1.00189,0.00222,0.00125,0.00354
1790809681.841908,-0.01915,0.01087,-1.00282,0.0,0.00121,0.00281
1790809681.870938,-0.01862,0.01055,-1.00264,0.00238,0.00219,0.00603
1790809681.882098,-0.01862,0.01055,-1.00264,0.00238,0.00219,0.00603
1790809681.9147892,-0.01517,0.01146,-1.00278,-0.0022,0.00492,0.00481
1790809681.925494,-0.0137,0.01088,-1.00281,0.00251,0.00333,0.0032
1790809681.948256,-0.01333,0.01083,-1.0023,-0.00238,0.00142,0.00233
1790809681.972517,-0.01644,0.0107,-1.00049,-0.00029,0.00243,0.00311
1790809682.0082738,-0.0209,0.0108,-1.00275,-0.0004,0.00425,0.00301
1790809682.031285,-0.02118,0.00919,-1.00217,0.00031,0.00375,0.00604
1790809682.0568252,-0.01993,0.01152,-1.00206,-0.0004,0.00156,0.00303
1790809682.0648909,-0.01784,0.01063,-1.00231,-0.00246,0.00154,0.00293
1790809682.096871,-0.0168,0.01081,-1.00153,0.00049,0.00191,0.00277
1790809682.1125681,-0.01691,0.01073,-1.003,-0.00209,0.00239,0.00314
1790809682.140696,-0.01716,0.00922,-1.00111,-0.00287,0.0031,0.00624
1790809682.143907,-0.01547,0.01215,-1.00259,0.00108,0.00448,0.00187
1790809682.184454,-0.01551,0.0107,-1.00419,-0.00109,0.00231,0.00302
1790809682.211529,-0.01799,0.01156,-1.00195,-0.00074,-0.00042,0.00485
1790809682.221962,-0.01829,0.012,-1.00181,0.00095,0.00068,0.00285
1790809682.2498822,-0.01877,0.01041,-1.0035,0.00193,0.00167,0.00297
1790809682.284926,-0.01814,0.01194,-1.00265,0.00029,0.004,0.00235
1790809682.314816,-0.01717,0.01065,-1.00421,-0.00179,0.00227,0.00461
1790809682.3204129,-0.01654,0.01011,-1.00414,0.00059,0.00294,0.00583
1790809682.346845,-0.01596,0.01096,-1.00221,0.00056,0.00043,0.00248
1790809682.363418,-0.01765,0.01015,-1.00131,0.00199,0.00364,0.00506
1790809682.414572,-0.01744,0.01058,-1.00191,0.0001,0.00257,0.00398
1790809682.42402,-0.01808,0.00998,-1.00282,-0.00013,0.00396,0.0047
1790809682.462773,-0.01796,0.00989,-1.00178,0.00169,0.00203,0.00422
1790809682.4650009,-0.01715,0.01233,-1.00313,-6e-05,0.00524,0.00393
1790809682.494883,-0.01865,0.01117,-1.00243,0.00014,0.00298,0.00428
1790809682.5032718,-0.01816,0.0102,-1.00197,-0.00256,0.0013,0.00447
1790809682.531252,-0.01634,0.01079,-1.00232,0.00246,0.0023,0.00329
1790809682.5643132,-0.01726,0.00946,-1.00329,0.00033,0.00252,0.00555
1790809682.606296,-0.01657,0.0111,-1.00249,-0.00381,0.00264,0.00272
1790809682.641014,-0.01704,0.00963,-1.00237,-0.00149,0.0014,0.00485
1790809682.691065,-0.01835,0.01113,-1.00224,-0.00091,0.00302,0.00451
1790809682.72502,-0.0166,0.01144,-1.00189,-7e-05,0.00304,0.00563
1790809682.76474,-0.01521,0.01089,-1.00378,-0.00012,0.00253,0.00382
1790809682.7975612,-0.01759,0.00985,-1.00334,-0.00116,0.00386,0.00192
1790809682.8016698,-0.01882,0.01168,-1.00321,-0.00106,0.00265,0.00271
1790809682.830963,-0.02035,0.00954,-1.00257,0.00184,0.00162,0.00553
1790809682.845917,-0.01798,0.01196,-1.00285,-0.00199,0.00145,0.00423
1790809682.875226,-0.01769,0.01081,-1.00467,-0.00242,0.00335,0.0053
1790809682.882179,-0.01787,0.00995,-1.00243,-0.00105,0.00207,0.00453
1790809682.913614,-0.01603,0.0116,-1.00278,-0.00377,0.00463,0.00094
1790809682.9234529,-0.01654,0.0105,-1.00173,-0.00141,-0.00082,0.00148
1790809682.950647,-0.01705,0.01025,-1.00244,0.00044,-1e-05,0.00288
1790809682.9798698,-0.01714,0.00992,-1.00297,-6e-05,0.00348,0.00256
1790809683.002748,-0.01713,0.01058,-1.00409,-0.0007,0.00248,0.00494
1790809683.0173209,-0.01717,0.0107,-1.00376,0.00109,0.00117,0.00562
1790809683.0417678,-0.01947,0.00961,-1.00256,-0.00077,0.00249,0.00474
1790809683.071904,-0.01928,0.01088,-1.00452,-0.00146,0.00124,0.00497
1790809683.081957,-0.01802,0.01119,-1.00396,0.00127,0.00236,8e-05
1790809683.10724,-0.01666,0.00867,-1.00256,-0.00184,0.00338,0.00385
1790809683.120926,-0.01601,0.01145,-1.00236,-5e-05,0.00242,0.0026
1790809683.145833,-0.01796,0.00959,-1.00362,-0.00065,0.00349,0.00647
1790809683.180386,-0.0178,0.01162,-1.00364,0.0,-0.00143,0.00339
1790809683.185765,-0.01822,0.01116,-1.00304,-0.00293,0.00114,0.00389
1790809683.2211761,-0.01804,0.01014,-1.00048,-0.00175,0.00059,0.00297
1790809683.2561321,-0.01703,0.01013,-1.00303,-0.00142,0.00448,0.00384
1790809683.265005,-0.01799,0.01297,-1.00299,-0.00012,0.00309,0.00174
1790809683.289799,-0.01848,0.00851,-1.00334,-0.00127,0.00342,0.00412
1790809683.302568,-0.01822,0.0104,-1.00445,-0.00132,0.00294,0.00288
1790809683.325492,-0.01806,0.01108,-1.00255,0.00014,0.00389,0.0059
1790809683.361967,-0.01789,0.00954,-1.00133,-0.00068,0.00634,0.00404
1790809683.3651981,-0.01606,0.0104,-1.00193,-0.00101,0.00067,0.0035
1790809683.398303,-0.01623,0.01123,-1.00281,0.00186,0.0017,0.003
1790809683.402385,-0.01679,0.01129,-1.00185,0.00124,0.00382,0.00073
1790809683.435164,-0.01807,0.01096,-0.99955,0.00139,0.00151,0.00409
1790809683.444813,-0.01868,0.01062,-1.00087,-0.00168,0.00413,0.00234
1790809683.4746351,-0.01848,0.01119,-1.00301,-0.00072,0.00102,0.00268
1790809683.482342,-0.01911,0.0111,-1.00162,-8e-05,0.00267,0.0032
1790809683.508687,-0.019,0.00948,-1.00213,-0.0001,0.0013,0.00465
1790809683.541229,-0.01716,0.01215,-1.00197,-0.00053,0.00255,0.00181
1790809683.5454679,-0.01652,0.01093,-1.00304,0.00125,0.00072,0.00547
1790809683.5801768,-0.0171,0.01039,-1.00206,-0.00029,0.00388,0.00506
1790809683.585312,-0.01805,0.00978,-1.00171,0.00131,0.00085,0.00234
1790809683.624884,-0.01708,0.01132,-1.00287,0.00112,0.00296,0.00333
1790809683.6537228,-0.01714,0.01094,-1.0025,0.00148,0.00279,0.00624
1790809683.658539,-0.01617,0.01019,-1.00207,-2e-05,0.00421,0.00327
1790809683.693808,-0.01607,0.00942,-1.00117,0.00051,0.00137,0.00567
1790809683.7042282,-0.01698,0.01113,-1.00261,5e-05,0.0007,0.00253
1790809683.73194,-0.01861,0.01048,-1.0033,-0.00211,0.00216,0.00162
1790809683.739794,-0.01983,0.00976,-1.00302,-0.00055,0.00338,0.00377
1790809683.768435,-0.01971,0.01106,-1.00069,-0.00132,0.00216,0.00417
1790809683.796583,-0.01944,0.01129,-1.00412,-0.00167,0.00254,0.0033
1790809683.838858,-0.01904,0.00943,-1.00383,0.00181,0.00123,0.00303
1790809683.848043,-0.01602,0.01254,-1.00281,0.00133,0.00265,0.00021
1790809683.87475,-0.01509,0.00902,-1.00351,0.00069,0.00171,0.00435
1790809683.8817651,-0.01487,0.01133,-1.00179,-0.00049,0.00366,0.00167
1790809683.909935,-0.01682,0.00983,-1.00182,-0.00116,0.00177,0.00423
1790809683.92303,-0.01742,0.01063,-1.00076,5e-05,0.00298,0.00213
1790809683.9475079,-0.01969,0.01061,-1.00055,0.0006,0.00416,0.00483
1790809683.982529,-0.01827,0.0122,-1.00333,0.0001,0.00239,-0.00042
1790809684.012665,-0.01785,0.00961,-1.00147,0.00165,0.00148,0.00597
1790809684.0244968,-0.01736,0.01102,-1.00189,-0.00085,-0.00016,0.00232
1790809684.0561228,-0.01679,0.01055,-1.00278,0.0016,0.00241,0.00192
1790809684.0749388,-0.0169,0.01001,-1.00248,-0.00055,0.00241,0.0054
1790809684.103592,-0.01563,0.00991,-1.00185,-0.00289,0.00306,0.00568
1790809684.129615,-0.01709,0.00886,-1.00114,0.00096,0.00247,0.00357
1790809684.166911,-0.01785,0.01014,-1.00262,0.00046,0.00317,0.00185
1790809684.2009459,-0.01855,0.01048,-1.00028,0.00226,0.0047,0.00522
1790809684.204136,-0.0177,0.01148,-1.00131,-0.00394,0.00136,0.00292
1790809684.243741,-0.01655,0.01129,-1.00133,-0.00013,0.00423,0.00159
1790809684.265874,-0.01722,0.01111,-1.00199,-0.00026,0.00084,0.00215
1790809684.283354,-0.01621,0.01025,-1.00351,-0.00177,0.00242,0.00329
1790809684.306366,-0.01481,0.012,-1.0032,0.00025,0.0054,0.00123
1790809684.335388,-0.0171,0.00873,-1.00324,0.00232,0.00227,0.00714
1790809684.347511,-0.01752,0.01177,-1.00279,-0.00045,0.00368,0.00138
1790809684.373556,-0.01812,0.01177,-1.0009,0.00118,0.00264,0.00522
1790809684.3834088,-0.01986,0.01076,-1.00253,-0.0005,-0.00305,0.00211
1790809684.4046662,-0.01965,0.011,-1.00401,-0.00142,0.00534,0.00417
1790809684.435733,-0.01902,0.01074,-1.00351,-0.00102,0.0001,0.00262
1790809684.4700558,-0.01839,0.01085,-1.00263,-0.0008,0.00022,0.00248
1790809684.4834611,-0.01841,0.01025,-1.00212,0.00152,0.00031,0.00479
1790809684.503683,-0.01872,0.00959,-1.00263,-0.00245,0.00292,0.00551
1790809684.535661,-0.01669,0.01016,-1.00036,0.00225,-0.00015,0.00185
1790809684.5402932,-0.01577,0.01132,-1.00143,0.00236,0.00411,0.00385
1790809684.5669708,-0.01664,0.01114,-1.00389,0.00041,0.00379,0.00198
1790809684.5831192,-0.01826,0.00902,-1.00233,-0.00314,0.00099,0.00537
1790809684.6042528,-0.02043,0.01102,-1.00366,0.00039,0.00357,0.00312
1790809684.6360781,-0.01947,0.0109,-1.00423,-0.00368,0.00161,0.00133
1790809684.643971,-0.01947,0.0109,-1.00423,-0.00368,0.00161,0.00133
1790809684.669666,-0.01776,0.00995,-1.00477,-0.00037,0.00332,0.00098
1790809684.683826,-0.01776,0.00995,-1.00477,-0.00037,0.00332,0.00098
1790809684.704283,-0.01719,0.01055,-1.00337,-0.00085,0.00115,0.00511
1790809684.7387562,-0.01572,0.01015,-1.00388,0.00096,0.00177,0.00264
1790809684.740314,-0.01572,0.01015,-1.00388,0.00096,0.00177,0.00264
1790809684.773003,-0.01589,0.01018,-1.00296,-0.00041,0.0032,0.00466
1790809684.78369,-0.01703,0.01059,-1.00221,-0.0016,0.0033,0.00269
1790809684.8058398,-0.01858,0.0101,-1.00187,-0.00108,0.00207,0.00319
1790809684.836803,-0.02025,0.00931,-1.00296,-0.00098,0.00225,0.00438
1790809684.841494,-0.02115,0.01077,-1.00209,-0.0024,0.00042,0.00261
1790809684.875825,-0.02014,0.01068,-1.00119,0.00048,0.00245,0.0054
1790809684.882876,-0.01765,0.01134,-1.00183,-0.00115,0.00062,0.00057
1790809684.908167,-0.01683,0.0093,-1.00244,0.00062,0.00498,0.00333
1790809684.9223459,-0.01594,0.00861,-1.00223,4e-05,0.00159,0.00454
1790809684.942091,-0.01518,0.0116,-1.00174,-0.00049,0.00406,0.00286
1790809684.9747672,-0.01508,0.01033,-1.00326,-0.00077,0.00081,0.0039
1790809684.989173,-0.01473,0.01051,-1.00409,-0.00028,0.0011,9e-05
1790809685.008998,-0.01618,0.01009,-1.00292,0.00359,0.00283,0.00275
1790809685.0279198,-0.01658,0.01171,-1.00184,0.00146,0.00153,0.00299
1790809685.089841,-0.02027,0.01144,-1.00227,0.00049,0.00135,0.00406
1790809685.118357,-0.01953,0.01144,-1.00177,0.00161,0.00242,0.00466
1790809685.127362,-0.01788,0.01091,-1.00305,-0.00065,0.00072,0.00192
1790809685.14639,-0.01788,0.01091,-1.00305,-0.00065,0.00072,0.00192
1790809685.183718,-0.01605,0.00963,-1.00247,-0.00157,0.00172,0.00291
1790809685.215245,-0.01656,0.00913,-1.00318,0.00104,0.00244,0.00468
1790809685.227104,-0.01499,0.01086,-1.00366,-0.00225,0.00089,0.00207
1790809685.263938,-0.01693,0.011,-1.00306,0.00201,0.00563,0.00271
1790809685.2843,-0.01809,0.00951,-1.00249,-0.00059,0.00092,0.00417
1790809685.3053381,-0.01874,0.01108,-1.00344,-0.0005,0.00261,0.00323
1790809685.328842,-0.01926,0.01081,-1.00317,0.00123,0.00194,0.00502
1790809685.351342,-0.01865,0.0133,-1.00405,-7e-05,0.00429,0.00158
1790809685.365721,-0.0194,0.01131,-1.00389,0.00241,0.00089,0.00521
1790809685.38365,-0.01902,0.01126,-1.0026,0.00025,0.00275,0.00339
1790809685.413104,-0.01843,0.01188,-1.00225,-4e-05,0.00126,0.00322
1790809685.427571,-0.01768,0.0086,-1.00224,-0.00011,0.00308,0.00433
1790809685.446979,-0.01593,0.00994,-1.00199,0.00037,0.00524,0.00139
1790809685.463556,-0.01616,0.00918,-1.00187,0.00078,0.00151,0.00594
1790809685.4829109,-0.0147,0.01041,-1.00143,0.00103,0.00266,0.00484
1790809685.5219631,-0.015,0.01127,-1.00443,-0.0003,0.00049,0.00228
1790809685.544951,-0.01712,0.00818,-1.0052,-0.00062,0.00313,0.0048
1790809685.569908,-0.01812,0.01285,-1.00361,0.00098,0.0004,0.00215
1790809685.5857012,-0.02014,0.00947,-1.00371,-0.00245,0.00235,0.00605
1790809685.61532,-0.01922,0.01131,-1.00378,-0.00215,-0.0004,0.00096
1790809685.628719,-0.01881,0.0107,-1.00127,0.00149,0.00271,0.00425
1790809685.650636,-0.02024,0.00812,-1.00094,0.00043,-0.00016,0.00239
1790809685.664602,-0.01879,0.01192,-1.00351,-0.00223,0.00145,0.0015
1790809685.685159,-0.01851,0.01062,-1.00406,-0.00195,0.00396,0.00443
1790809685.713017,-0.0158,0.01005,-1.00382,0.00069,0.00165,0.00208
1790809685.72998,-0.01338,0.01184,-1.00279,-0.0011,0.00058,0.00227
1790809685.763275,-0.01436,0.0092,-1.00262,-0.00097,0.00084,0.00397
1790809685.784724,-0.01342,0.01129,-1.00447,-0.00084,0.00315,0.00074
1790809685.815222,-0.0189,0.0099,-1.00106,0.00069,0.00201,0.0037
1790809685.8221939,-0.01941,0.0118,-1.00415,-0.00174,0.00015,0.00142
1790809685.8418481,-0.02119,0.00992,-1.00387,0.00213,0.00148,0.00505
1790809685.8645399,-0.02085,0.01064,-1.00152,0.00314,0.00258,0.00148
1790809685.88584,-0.019,0.01074,-1.00103,-0.00389,0.0039,0.00377
1790809685.903491,-0.01906,0.00932,-1.00317,-0.00166,0.0,0.00413
1790809685.925948,-0.01831,0.01104,-1.00336,-0.00103,0.00258,0.00293
1790809685.947947,-0.01778,0.01027,-1.00369,0.00194,-3e-05,0.00274
1790809685.965665,-0.01775,0.00903,-1.00311,-0.00116,0.00109,0.00584
1790809685.988719,-0.01523,0.0128,-1.00178,0.00193,0.00251,0.00023
1790809686.0268722,-0.01622,0.00926,-1.00158,0.00174,0.00343,0.00598
1790809686.049974,-0.01568,0.00907,-1.00181,0.0007,0.00224,0.00122
1790809686.063658,-0.01779,0.01003,-1.00347,-0.00196,0.00103,0.00225
1790809686.0855098,-0.01753,0.01135,-1.00409,-0.0002,0.00387,0.00415
1790809686.099662,-0.01852,0.01091,-1.00418,0.0006,-0.00093,0.00346
1790809686.136161,-0.01973,0.01029,-1.00334,-0.00105,0.00145,-5e-05
1790809686.169794,-0.0178,0.01,-1.00218,0.0011,-0.00023,0.00246
1790809686.1981142,-0.01826,0.01151,-1.00365,-0.00157,0.00239,0.00347
1790809686.205889,-0.01823,0.00993,-1.00242,0.00225,0.00571,0.00399
1790809686.229598,-0.01769,0.0122,-1.00197,0.00087,0.00047,0.00317
1790809686.2617679,-0.01842,0.01035,-1.00239,-0.00315,0.00269,0.00358
1790809686.284817,-0.01528,0.01091,-1.00274,-0.00013,0.00117,-0.00067
1790809686.3108811,-0.01635,0.00903,-1.00086,-0.00093,0.00081,0.0041
1790809686.328058,-0.01641,0.01065,-1.00251,-0.00204,0.00173,0.00079
1790809686.355746,-0.01764,0.01076,-1.00359,0.00183,0.00296,0.0031
1790809686.3640058,-0.01888,0.01056,-1.00297,-0.00088,0.00517,0.00598
1790809686.388812,-0.02044,0.00972,-1.00218,0.00077,0.00443,0.00344
1790809686.4047868,-0.01845,0.01102,-1.00468,-0.00096,0.0035,0.00244
1790809686.4263759,-0.0184,0.00843,-1.00339,5e-05,0.00147,0.00321
1790809686.450783,-0.01786,0.01088,-1.00167,0.00301,0.00047,0.00359
1790809686.486432,-0.01645,0.00969,-1.00226,0.00026,0.00012,0.00449
1790809686.525156,-0.01807,0.00964,-1.00326,-0.00035,0.00113,0.0065
1790809686.5512152,-0.01755,0.01068,-1.00226,-0.00361,-0.0009,0.00441
1790809686.564648,-0.01777,0.00866,-1.00349,0.00303,0.00354,0.00441
1790809686.589896,-0.01774,0.01165,-1.0027,-0.00079,0.00342,0.00233
1790809686.604279,-0.01878,0.00717,-1.00338,0.00094,0.00248,0.0059
1790809686.6264598,-0.01888,0.00926,-1.00351,-0.00057,0.00164,4e-05
1790809686.65292,-0.01766,0.01105,-1.00141,-5e-05,0.00209,0.00198
1790809686.662857,-0.01739,0.01012,-1.00238,-0.00178,0.00174,0.00096
1790809686.695801,-0.01657,0.01171,-1.0033,-0.00117,0.00104,0.00241
1790809686.704415,-0.0162,0.01028,-1.00192,-0.00142,0.00309,0.00419
1790809686.7254138,-0.01626,0.00961,-1.00176,0.00045,0.00287,0.00306
1790809686.7562659,-0.0182,0.01082,-1.0029,0.00106,0.0018,0.00154
1790809686.76426,-0.01827,0.01041,-1.00248,0.00132,0.00253,0.00406
1790809686.789162,-0.0179,0.00928,-1.00359,-0.00197,0.00292,0.00419
1790809686.830893,-0.01799,0.00973,-1.00306,-0.00034,0.00023,0.00254
1790809686.85638,-0.01861,0.01135,-1.00156,-0.00084,0.00167,0.00205
1790809686.864225,-0.01612,0.00975,-1.00151,0.00225,0.00334,0.00284
1790809686.8897622,-0.01603,0.01083,-1.0021,0.00081,0.00309,0.00162
1790809686.89621,-0.01762,0.00997,-1.0026,0.00138,0.00161,0.00326
1790809686.9203358,-0.01663,0.01086,-1.00131,0.00092,0.00325,0.00421
1790809686.953425,-0.01663,0.01086,-1.00131,0.00092,0.00325,0.00421
1790809686.964129,-0.01798,0.01095,-1.00113,-9e-05,0.00201,0.00177
1790809686.99018,-0.01798,0.01095,-1.00113,-9e-05,0.00201,0.00177
1790809687.0040781,-0.01891,0.00917,-1.00073,-0.00202,0.00509,0.00338
1790809687.024386,-0.01681,0.01142,-1.00114,0.00219,0.00262,0.00303
1790809687.054008,-0.01676,0.00997,-1.00433,0.0018,0.00515,0.00626
1790809687.062699,-0.01633,0.01021,-1.00367,-0.00029,0.00318,0.00473
1790809687.098913,-0.01505,0.01148,-1.00097,0.00056,0.00269,0.00364
1790809687.104397,-0.01809,0.00845,-1.00188,0.00294,0.00372,0.00796
1790809687.131408,-0.01761,0.01133,-1.00386,-0.00033,0.00284,0.00048
1790809687.1459022,-0.01729,0.00981,-1.00492,0.00089,0.00089,0.00179
1790809687.164812,-0.01724,0.00961,-1.00315,-0.0004,0.00259,0.00253
1790809687.207783,-0.0166,0.01125,-1.00407,0.00071,8e-05,0.00167
1790809687.216785,-0.01727,0.00844,-1.005,0.00068,0.00201,0.00633
1790809687.241846,-0.01752,0.01042,-1.00359,0.00183,0.00216,0.00345
1790809687.258583,-0.01797,0.00964,-1.00172,0.00021,0.00179,0.00189
1790809687.2834759,-0.01797,0.00964,-1.00172,0.00021,0.00179,0.00189
1790809687.304679,-0.01786,0.01032,-1.00217,0.001,0.00258,0.00316
1790809687.337013,-0.01763,0.00927,-1.00296,0.00266,0.00185,0.00246
1790809687.342421,-0.01782,0.01008,-1.00453,-0.00052,0.00611,0.00574
1790809687.360899,-0.01646,0.00912,-1.00323,-0.00196,0.00194,0.00386
1790809687.3830929,-0.01619,0.00973,-1.00364,-0.00234,0.00235,0.00167
1790809687.408301,-0.01773,0.01061,-1.00271,0.00206,0.00173,0.00723
1790809687.440751,-0.01926,0.00942,-1.00245,-0.00082,-0.0014,0.00346
1790809687.4438138,-0.01809,0.01194,-1.0031,0.00105,0.00149,0.00117
1790809687.4717271,-0.01864,0.00963,-1.00221,0.00129,0.00157,0.00471
1790809687.486227,-0.01857,0.0094,-1.00124,-0.00189,0.00247,0.00373
1790809687.507612,-0.01763,0.01135,-1.00333,-0.00073,0.00592,0.00222
1790809687.5401,-0.01869,0.00891,-1.00392,0.00036,0.00164,0.00248
1790809687.543914,-0.01702,0.01019,-1.00206,-0.00127,0.00251,0.00191
1790809687.570845,-0.01667,0.01107,-1.00166,-0.0042,0.00146,0.00401
1790809687.591664,-0.01736,0.00929,-1.00353,0.00015,0.0014,0.00536
1790809687.612504,-0.01488,0.01131,-1.00363,0.00047,0.0016,0.00146
1790809687.626535,-0.01596,0.00809,-1.00333,0.00091,0.00342,0.00633
1790809687.655479,-0.01605,0.00989,-1.00078,0.00152,0.00095,-0.00034
1790809687.663677,-0.01725,0.01046,-1.00137,0.00127,0.00261,0.00389
1790809687.710172,-0.01779,0.00947,-1.0022,0.00141,0.00392,0.00414
1790809687.72594,-0.01868,0.01116,-1.00191,0.00036,0.00378,0.00276
1790809687.747453,-0.01898,0.00884,-1.00322,-0.00129,6e-05,0.00648
1790809687.763065,-0.01844,0.01337,-1.00273,0.00123,0.00222,0.00125
1790809687.7815921,-0.01954,0.01005,-1.00354,0.00019,0.00232,0.00466
1790809687.8099709,-0.01803,0.0091,-1.00298,-0.00103,0.00151,0.00535
1790809687.827394,-0.01578,0.01157,-1.00423,-0.00207,0.00491,0.00216
1790809687.8444219,-0.01559,0.00991,-1.00411,0.00024,0.00702,0.00334
1790809687.864154,-0.01627,0.00992,-1.00335,-0.00011,0.00114,0.00322
1790809687.884939,-0.01643,0.0101,-1.00236,-0.00234,0.00181,0.00346
1790809687.899768,-0.01709,0.00803,-1.00278,-0.00146,0.00071,0.00697
1790809687.9278011,-0.01795,0.01074,-1.0029,-0.00132,0.00207,0.00362
1790809687.946538,-0.01752,0.01002,-1.00474,0.00199,0.00027,0.00166
1790809687.966639,-0.0174,0.01025,-1.00355,0.00087,0.00238,0.00337
1790809687.9867089,-0.01712,0.00923,-1.00221,1e-05,0.00294,0.00413
1790809688.013569,-0.01629,0.00965,-1.00315,0.00076,0.00162,0.00611
1790809688.0462961,-0.0168,0.01036,-1.00292,0.001,0.00215,0.00288
1790809688.060701,-0.01854,0.00921,-1.00249,-0.00084,0.00308,0.00303
1790809688.084322,-0.01708,0.01007,-1.00518,0.00026,0.0017,0.00266
1790809688.113217,-0.01726,0.00813,-1.00391,0.00032,0.00352,0.00564
1790809688.125802,-0.01629,0.01079,-1.00398,0.00049,0.00253,0.00177
1790809688.149697,-0.01645,0.01004,-1.00374,-0.00253,0.00297,0.00384
1790809688.1653702,-0.01817,0.00991,-1.00427,-0.00161,0.00299,0.00565
1790809688.18545,-0.01678,0.01155,-1.00259,0.00118,0.00222,0.00205
1790809688.21327,-0.017,0.00891,-1.00321,0.00132,0.00124,0.00673
1790809688.232805,-0.01795,0.01063,-1.00274,0.00036,0.00184,0.00213
1790809688.268631,-0.01713,0.00941,-1.00069,-0.00178,0.00433,0.00417
1790809688.303846,-0.01881,0.00835,-1.0028,0.00018,0.00251,0.00537
1790809688.352062,-0.01813,0.00955,-1.00292,-0.00038,0.003,0.00301
1790809688.3622348,-0.01806,0.01156,-1.00323,-0.00386,0.0029,0.00292
1790809688.385492,-0.01803,0.00813,-1.00355,-0.00069,0.00128,0.00431
1790809688.401637,-0.01714,0.01081,-1.00429,-0.00149,-0.00032,0.00092
1790809688.423997,-0.01655,0.00923,-1.00237,-0.00146,0.00443,0.00408
1790809688.453433,-0.01744,0.00956,-1.00288,-0.00075,0.00278,0.00618
1790809688.459747,-0.0178,0.00897,-1.00248,-0.00228,0.00308,0.00573
1790809688.489307,-0.0178,0.00897,-1.00248,-0.00228,0.00308,0.00573
1790809688.501618,-0.01698,0.01043,-1.00244,-0.00078,0.00083,0.0057
1790809688.519958,-0.01868,0.00958,-1.00281,0.00264,0.00194,0.00459
1790809688.5555441,-0.01722,0.01152,-1.00396,0.0004,0.00217,0.00339
1790809688.559096,-0.01834,0.0107,-1.00317,0.00088,0.00268,0.0031
1790809688.588407,-0.0185,0.00962,-1.00277,0.00153,0.00104,0.00413
1790809688.6017761,-0.01789,0.01098,-1.00287,0.00038,0.00303,0.00186
1790809688.6191711,-0.01892,0.00812,-1.00197,0.00104,0.00356,0.00518
1790809688.6444778,-0.01855,0.00907,-1.00099,0.00153,0.00315,0.00288
1790809688.661508,-0.01773,0.01132,-1.00159,0.00089,0.00383,0.00114
1790809688.6987038,-0.01988,0.00883,-1.00264,-0.00153,0.00367,0.00552
1790809688.753485,-0.01758,0.00992,-1.00256,0.00284,0.00441,0.00556
1790809688.759927,-0.01665,0.00984,-1.00407,0.00049,0.00292,0.00344
1790809688.7946088,-0.01473,0.01144,-1.00282,0.00196,0.00136,0.00095
1790809688.802924,-0.01574,0.01034,-1.00309,-0.00028,0.00162,0.00239
1790809688.8285172,-0.01679,0.01079,-1.00253,-0.00394,0.00308,0.0039
1790809688.8433669,-0.01929,0.00912,-1.00223,0.00182,0.00457,0.00376
1790809688.8603039,-0.01883,0.01044,-1.00108,-0.0016,0.00188,0.0029
1790809688.882592,-0.01915,0.00958,-1.00219,0.00085,0.00314,0.00218
1790809688.90343,-0.01836,0.00965,-1.00345,-0.00017,0.00493,0.00289
1790809688.928329,-0.01811,0.01022,-1.00221,0.00186,0.00336,0.00566
1790809688.943357,-0.01731,0.01,-1.00423,-5e-05,0.00191,0.00321
1790809688.962431,-0.01635,0.01074,-1.00495,0.00041,0.00435,0.00356
1790809688.991869,-0.01752,0.00884,-1.00303,0.0013,0.00396,0.00439
1790809689.011586,-0.01586,0.01061,-1.00333,-0.0008,0.00116,0.0027
1790809689.0331159,-0.01581,0.00911,-1.00319,0.00086,0.00183,0.00378
1790809689.043536,-0.01628,0.00953,-1.00317,-0.00171,0.00397,0.00269
1790809689.063936,-0.01728,0.00931,-1.00198,0.00079,0.00431,0.00378
1790809689.0958169,-0.01943,0.00816,-1.0029,-0.00076,0.00124,0.00537
1790809689.1032069,-0.01915,0.01104,-1.00269,-0.00055,0.00418,0.00255
1790809689.128248,-0.01852,0.00934,-1.00219,-0.00176,0.00413,0.0064
1790809689.145338,-0.01907,0.00906,-1.00372,-0.00103,0.00059,0.00359
1790809689.166896,-0.01832,0.01192,-1.00197,0.00023,0.00099,0.00191
1790809689.201709,-0.01827,0.0083,-1.0026,-0.00087,0.00148,0.00571
1790809689.231905,-0.01536,0.01036,-1.00235,0.00046,0.00686,0.00286
1790809689.247859,-0.01648,0.00886,-1.00289,-0.00312,0.00282,0.00247
1790809689.267257,-0.01519,0.01113,-1.0031,0.00175,0.0023,8e-05
1790809689.2826712,-0.01569,0.00981,-1.00238,8e-05,0.00178,0.00459
1790809689.304885,-0.01688,0.00963,-1.00306,0.00275,0.00225,0.00387
1790809689.33896,-0.01863,0.00847,-1.00214,-0.00218,0.00314,0.00385
1790809689.347567,-0.01917,0.01122,-1.00071,0.00058,0.00487,0.001
1790809689.3654559,-0.01977,0.00835,-1.00281,-0.00269,0.00086,0.00561
1790809689.381928,-0.0181,0.00905,-1.00374,-0.0011,0.00284,0.00294
1790809689.406237,-0.01678,0.01055,-1.00151,-0.00064,0.00521,0.00334
1790809689.432399,-0.01675,0.00692,-1.00117,-0.00064,0.00242,0.00632
1790809689.4449768,-0.01472,0.01033,-1.00194,-0.00197,0.00191,0.00052
1790809689.464179,-0.01589,0.01004,-1.00208,-0.00071,0.0012,0.00477
1790809689.48307,-0.01749,0.00791,-1.00338,-0.0017,-0.00034,0.00726
1790809689.505464,-0.01754,0.01255,-1.00277,-0.00119,0.00492,0.00403
1790809689.53524,-0.01913,0.00969,-1.00106,0.00263,0.00414,0.00599
1790809689.544771,-0.01854,0.00859,-1.00071,0.00112,0.00127,0.00339
1790809689.5667489,-0.01864,0.00966,-1.00216,0.00011,0.00168,0.00434
1790809689.583956,-0.01753,0.00906,-1.00225,-0.00053,0.00279,0.00417
1790809689.604519,-0.01696,0.0099,-1.00135,0.00014,0.00138,0.00433
1790809689.636319,-0.01728,0.00934,-1.00201,0.00193,0.00187,0.00283
1790809689.644368,-0.01729,0.01153,-1.00206,0.00196,0.00538,0.00328
1790809689.669962,-0.01706,0.00924,-1.00297,0.00147,0.00451,0.00371
1790809689.6763468,-0.01645,0.00994,-1.00187,-0.00215,0.00181,0.00413
1790809689.723365,-0.01654,0.00874,-1.00485,-0.00117,0.00238,0.00377
1790809689.744521,-0.01654,0.00874,-1.00485,-0.00117,0.00238,0.00377
1790809689.771478,-0.01712,0.00991,-1.00215,0.00023,0.0044,0.00176
1790809689.7794392,-0.01712,0.00991,-1.00215,0.00023,0.0044,0.00176
1790809689.803586,-0.01908,0.01064,-1.00233,-0.00129,0.003,0.00302
1790809689.82431,-0.01881,0.0097,-1.00378,-0.00159,0.00034,0.00357
1790809689.844034,-0.01747,0.00936,-1.00143,0.00026,0.0039,0.00431
1790809689.871426,-0.01738,0.00998,-1.00026,-0.0018,0.00075,0.00441
1790809689.8836071,-0.0176,0.01059,-1.00236,-0.00022,0.00284,0.00232
1790809689.905161,-0.01802,0.00917,-1.00377,0.00345,0.00208,0.00251
1790809689.922146,-0.01688,0.00994,-1.00304,-0.0024,0.00279,0.00316
1790809689.9435892,-0.01609,0.0098,-1.00327,0.00059,0.00426,0.00145
1790809689.9722838,-0.01675,0.00817,-1.00424,-0.00231,0.00469,0.00311
1790809689.983105,-0.01653,0.00954,-1.00309,-0.00026,0.00427,0.00343
1790809690.005056,-0.01722,0.00947,-1.00253,0.00045,0.00463,0.0042
1790809690.02721,-0.01682,0.01035,-1.00254,-0.00151,0.00108,0.00152
1790809690.048929,-0.01946,0.00795,-1.00254,-0.00289,0.0026,0.00465
1790809690.075289,-0.01949,0.0086,-1.00387,-0.00234,0.00271,0.00366
1790809690.0899808,-0.0174,0.01012,-1.00329,0.00084,0.00128,0.00113
1790809690.123188,-0.0186,0.00851,-1.00276,9e-05,0.00266,0.00572
1790809690.142085,-0.01812,0.00928,-1.00207,0.0004,0.00363,0.00427
1790809690.170861,-0.01695,0.01013,-1.0029,-0.00149,0.00356,-0.00028
1790809690.189999,-0.01753,0.00884,-1.00179,0.00195,0.00394,0.00603
1790809690.204851,-0.01745,0.00834,-1.00352,0.00186,0.0044,0.00411
1790809690.223885,-0.01719,0.00935,-1.00521,-0.0001,0.00255,0.00339
1790809690.244255,-0.01723,0.00926,-1.00212,-0.00394,0.00158,0.00344
1790809690.273348,-0.01664,0.0103,-1.00214,-0.00098,0.00262,0.00412
1790809690.281228,-0.01633,0.00869,-1.00489,-0.0011,0.00139,0.00614
1790809690.305426,-0.01707,0.01108,-1.00371,-0.00024,0.00395,0.00238
1790809690.329122,-0.01748,0.00873,-1.00169,-0.00083,0.00107,0.00375
1790809690.350222,-0.01817,0.00759,-1.00225,-0.00139,0.00338,0.00718
1790809690.3663108,-0.01848,0.01216,-1.00316,0.00208,0.00224,0.00181
1790809690.3883169,-0.01927,0.00821,-1.00223,-0.00014,0.00073,0.00532
1790809690.4232771,-0.0161,0.01096,-1.00137,-0.00024,-0.00021,0.00064
1790809690.443617,-0.01636,0.00937,-1.0033,-0.00207,0.00345,0.00424
1790809690.470176,-0.01712,0.00825,-1.00364,0.00214,0.0022,0.00294
1790809690.481285,-0.01835,0.00957,-1.00153,-0.00396,0.00305,0.00364
1790809690.508907,-0.01835,0.00957,-1.00153,-0.00396,0.00305,0.00364
1790809690.523836,-0.01783,0.01196,-1.00111,-0.00109,1e-05,0.0027
1790809690.5443058,-0.01969,0.00842,-1.00186,0.003,0.00439,0.00477
1790809690.563632,-0.01922,0.01095,-1.00278,-0.00165,0.00294,0.00057
1790809690.5763142,-0.01765,0.01033,-1.00171,0.00032,0.00276,0.00487
1790809690.609044,-0.01616,0.01011,-1.00177,-0.00114,0.00224,0.00333
1790809690.623219,-0.01605,0.01117,-1.00259,-0.00137,0.00444,0.00254
1790809690.643172,-0.0165,0.00804,-1.00468,-0.00221,0.00087,0.00692
1790809690.680887,-0.01718,0.01081,-1.00366,-0.00148,0.00102,-9e-05
1790809690.6951401,-0.01944,0.00979,-1.00238,0.00175,0.00224,0.0061
1790809690.722979,-0.01944,0.01012,-1.00331,0.00271,0.00271,0.00275
1790809690.74194,-0.01804,0.01158,-1.00395,0.00022,0.00107,0.00105
1790809690.7622,-0.01775,0.00992,-1.00204,-0.00066,0.00252,0.00525
1790809690.785571,-0.01636,0.00969,-1.00207,-0.00085,0.00195,0.0039
1790809690.810095,-0.01739,0.00938,-1.0032,-0.00036,0.00274,0.00786
1790809690.824783,-0.01586,0.0113,-1.00253,-0.00207,-0.0,0.00376
1790809690.8446112,-0.01699,0.00989,-1.00279,-0.00169,0.0022,0.00287
1790809690.871802,-0.01778,0.00934,-1.00193,-0.00013,0.00426,0.0041
1790809690.8849401,-0.01744,0.01021,-1.00322,0.0012,0.00297,0.00207
1790809690.907093,-0.01835,0.00832,-1.004,0.0005,0.00139,0.0041
1790809690.913135,-0.01655,0.01144,-1.00359,-0.001,0.00392,0.00311
1790809690.944424,-0.01758,0.00893,-1.0034,0.00141,0.00438,0.00355
1790809690.982224,-0.01879,0.00875,-1.00247,-0.00057,0.00278,0.00484
1790809691.006358,-0.02034,0.00929,-1.00096,0.00138,0.00224,0.00335
1790809691.022162,-0.01773,0.01085,-1.00098,-0.00077,0.00158,0.00187
1790809691.044078,-0.01611,0.01048,-1.00184,-0.00153,0.00098,0.0041
1790809691.064449,-0.01577,0.01078,-1.00416,-0.00144,0.00361,0.00053
1790809691.081366,-0.01577,0.01023,-1.00442,-0.00035,0.00134,0.00469
1790809691.123979,-0.0174,0.0092,-1.00252,-0.00054,0.00258,0.00309
1790809691.149247,-0.01745,0.00804,-1.00363,-0.00124,0.00197,0.00539
1790809691.164212,-0.01746,0.01039,-1.00374,-0.001,0.00323,0.00172
1790809691.191874,-0.01665,0.01079,-1.0031,0.00102,0.00437,0.00516
1790809691.2093272,-0.01754,0.01073,-1.00372,-0.00253,0.00213,0.00569
1790809691.224161,-0.01815,0.00956,-1.00295,0.00104,0.00423,0.00266
1790809691.264611,-0.01773,0.00965,-1.00317,-0.00226,0.00296,0.00532
1790809691.280777,-0.01832,0.0087,-1.00364,-0.0001,0.00282,0.00345
1790809691.309588,-0.01832,0.0087,-1.00364,-0.0001,0.00282,0.00345
1790809691.323691,-0.01767,0.01007,-1.00345,-0.00081,0.0021,0.00359
1790809691.347508,-0.01767,0.01076,-1.00254,-0.00012,0.00226,0.00324
1790809691.3662531,-0.01666,0.00787,-1.00344,0.00156,0.00421,0.00517
1790809691.385678,-0.01589,0.01014,-1.00458,-0.0004,0.00166,0.00518
1790809691.414082,-0.01529,0.01043,-1.0023,-0.00162,0.00411,0.00397
1790809691.431191,-0.0175,0.01065,-1.00335,-0.00086,0.00381,0.00467
1790809691.445245,-0.0187,0.00997,-1.00312,-0.00017,0.00356,0.00299
1790809691.464546,-0.01774,0.01005,-1.00283,-0.00028,0.00197,0.00252
1790809691.476767,-0.01764,0.00861,-1.00189,9e-05,0.00306,0.00444
1790809691.503561,-0.01579,0.00983,-1.00306,0.00019,0.00292,0.00368
1790809691.5244758,-0.01681,0.0098,-1.00381,-0.00284,0.00531,0.00355
1790809691.546153,-0.0176,0.00849,-1.00244,0.00205,0.00221,0.00568
1790809691.564834,-0.0181,0.00974,-1.00295,0.00159,0.00429,0.0019
1790809691.5790532,-0.01901,0.009,-1.00173,-0.00385,0.00209,0.00392
1790809691.602977,-0.01813,0.00967,-1.00344,0.00049,0.00318,0.00169
1790809691.629249,-0.01763,0.00903,-1.00343,-0.00294,0.00425,0.00493
1790809691.6460109,-0.01634,0.00957,-1.00203,-0.00077,0.00149,0.00114
1790809691.693302,-0.01703,0.0082,-1.00272,0.00172,0.00305,0.00335
1790809691.705512,-0.01726,0.01073,-1.00398,-0.00284,0.00447,0.00314
1790809691.724973,-0.01691,0.01076,-1.00185,0.00023,0.0056,0.00378
1790809691.741656,-0.01693,0.01093,-1.00211,-0.00038,0.00243,0.0025
1790809691.76315,-0.0184,0.00936,-1.00352,-0.00309,0.00386,0.00534
1790809691.781237,-0.01741,0.00965,-1.00682,-0.00014,0.00154,0.00331
1790809691.803888,-0.01672,0.01059,-1.00574,-0.00099,0.00058,0.00376
1790809691.828843,-0.01803,0.00924,-1.002,-0.00012,0.00124,0.00549
1790809691.840621,-0.01731,0.00926,-1.00185,0.00096,0.00232,0.00375
1790809691.869181,-0.018,0.00906,-1.0028,-0.00188,0.00424,0.00726
1790809691.878489,-0.01855,0.00994,-1.00372,-0.00017,0.00419,0.00336
1790809691.905319,-0.01751,0.01081,-1.00337,0.0005,0.00195,0.00151
1790809691.928142,-0.01826,0.00884,-1.00416,-0.00034,0.00155,0.0046
1790809691.948395,-0.01846,0.01177,-1.00387,-0.00303,0.00182,0.00312
1790809691.9654431,-0.01596,0.00962,-1.00324,0.00074,0.00278,0.00461
1790809691.980417,-0.01336,0.00914,-1.002,0.00155,0.00227,0.00414
1790809692.0043468,-0.0145,0.00931,-1.00079,5e-05,0.0047,0.00185
1790809692.037977,-0.01597,0.00902,-1.00348,-0.00063,0.00219,0.00299
1790809692.064856,-0.01629,0.01056,-1.00359,0.00133,0.00076,0.0031
1790809692.0841548,-0.01925,0.0107,-1.00393,-0.00117,0.00545,0.00707
1790809692.102575,-0.02241,0.0089,-1.00366,-0.00219,0.00493,0.003
1790809692.132441,-0.01926,0.00925,-1.00291,0.00055,0.0013,0.00219
1790809692.139165,-0.01781,0.00941,-1.00259,-0.00073,-0.00038,0.00284
1790809692.1642509,-0.01781,0.00941,-1.00259,-0.00073,-0.00038,0.00284
1790809692.193523,-0.01723,0.00941,-1.00328,-1e-05,0.00244,0.00385
1790809692.206065,-0.01723,0.00941,-1.00328,-1e-05,0.00244,0.00385
1790809692.232618,-0.01555,0.00996,-1.0029,-0.00297,0.00267,0.00428
1790809692.244147,-0.01622,0.00922,-1.0029,0.00042,0.00544,0.00655
1790809692.264705,-0.01602,0.00955,-1.00335,0.00025,0.00081,0.00453
1790809692.2853389,-0.01662,0.00997,-1.00292,-0.0011,0.00187,0.00326
1790809692.299968,-0.01736,0.0109,-1.00264,-0.00202,0.00024,0.00508
1790809692.331228,-0.0175,0.00844,-1.00219,-0.00148,0.00308,0.00258
1790809692.3371232,-0.01767,0.01034,-1.00264,-0.00072,0.00205,0.00294
1790809692.3697448,-0.02032,0.00966,-1.00331,-0.00123,0.00372,0.00383
1790809692.38859,-0.02038,0.01037,-1.00574,-0.00247,0.00112,0.00134
1790809692.4048839,-0.01982,0.01122,-1.00384,-0.00053,0.00274,0.00265
1790809692.433533,-0.01887,0.00916,-1.00166,-8e-05,0.00148,0.00527
1790809692.44544,-0.01697,0.01118,-1.00216,-0.00112,0.00318,0.0007
1790809692.475853,-0.01634,0.01059,-1.00275,0.0015,0.00381,0.005
1790809692.48908,-0.0168,0.00864,-1.00249,-0.00101,0.00219,0.00473
1790809692.5062442,-0.01432,0.01022,-1.00291,-0.00048,0.00419,0.00313
1790809692.53343,-0.01334,0.01,-1.00356,0.00162,0.00138,0.00346
1790809692.542944,-0.01512,0.01065,-1.00188,-0.00277,0.00281,0.00218
1790809692.564712,-0.01836,0.00911,-1.00071,-0.0016,0.00361,0.0033
1790809692.5875251,-0.02021,0.01028,-1.00279,-9e-05,0.00132,0.00212
1790809692.604321,-0.02079,0.00994,-1.00294,-0.00154,0.00159,0.00215
1790809692.631807,-0.0217,0.00928,-1.00223,-0.0019,0.00046,0.00335
1790809692.646634,-0.02082,0.00972,-1.00177,-0.00017,0.00552,0.00318
1790809692.667114,-0.01916,0.00962,-1.00368,-0.00247,0.00361,0.00227
1790809692.702698,-0.01821,0.00887,-1.00334,-0.00034,0.0005,0.00324
1790809692.725497,-0.01528,0.01011,-1.00148,-0.00124,0.00357,0.00353
1790809692.741538,-0.01486,0.00903,-1.00297,-0.0008,0.00102,0.0024
1790809692.766779,-0.01487,0.01096,-1.00471,-0.00257,0.00178,0.00123
1790809692.786376,-0.01766,0.00869,-1.00238,-0.00347,-0.00046,0.00503
1790809692.802748,-0.01869,0.00991,-1.00354,-0.00185,0.00326,0.00166
1790809692.825095,-0.01821,0.01066,-1.00621,0.00151,0.00481,0.00164
1790809692.835205,-0.02001,0.00842,-1.00501,-0.00201,-0.00088,0.00419
1790809692.866107,-0.01957,0.01066,-1.00288,0.00228,0.00148,0.00505
1790809692.888205,-0.0194,0.01027,-1.00261,-0.0002,0.00368,0.0031
1790809692.905196,-0.0186,0.0095,-1.00376,0.00132,0.00362,0.00054
1790809692.923844,-0.01651,0.00891,-1.00281,-0.00159,0.00176,0.00388
1790809692.9403222,-0.0165,0.00858,-1.00153,-0.00303,0.00134,0.00489
1790809692.968031,-0.01572,0.01068,-1.00317,0.00165,0.00285,0.00217
1790809692.990668,-0.016,0.00843,-1.0048,-0.00063,0.00278,0.0032
1790809693.023972,-0.01786,0.00886,-1.00394,0.00029,0.00181,0.00205
1790809693.042505,-0.01803,0.00994,-1.00129,-0.00099,0.00052,0.00401
1790809693.0632079,-0.01913,0.00828,-1.00295,-0.00056,0.00306,0.00311
1790809693.0866141,-0.01788,0.00999,-1.00155,-4e-05,-0.00117,0.00199
1790809693.104696,-0.01924,0.00836,-1.00328,0.00083,0.00258,0.00585
1790809693.123502,-0.01996,0.00972,-1.00285,0.0023,0.00359,0.00253
1790809693.14896,-0.01874,0.0106,-1.0044,-0.00055,0.00455,0.00396
1790809693.172263,-0.0182,0.00978,-1.0028,0.00021,0.00036,0.0035
1790809693.2063382,-0.0178,0.00952,-1.00275,0.00037,0.00419,0.00267
1790809693.2247481,-0.0178,0.00952,-1.00275,0.00037,0.00419,0.00267
1790809693.2401972,-0.01589,0.0104,-1.00328,0.00239,0.0038,0.00519
1790809693.272071,-0.01758,0.00706,-1.00332,-0.00397,3e-05,0.00389
1790809693.286686,-0.01825,0.01193,-1.00341,-0.00095,0.00147,0.00417
1790809693.305208,-0.01945,0.01088,-1.00204,-0.00337,0.00046,0.00283
1790809693.324627,-0.02095,0.00788,-1.00141,0.00096,-0.00083,0.00453
1790809693.340849,-0.01944,0.01036,-1.00494,0.0001,-0.0,0.00091
1790809693.372043,-0.01901,0.00951,-1.00449,-0.00146,0.00501,0.00447
1790809693.38697,-0.01641,0.01088,-1.00288,-0.00055,0.00144,0.00125
1790809693.413425,-0.01662,0.00875,-1.00099,-0.0004,0.0015,0.0056
1790809693.443427,-0.01699,0.00885,-1.00066,-0.00053,0.00113,0.00467
1790809693.4697201,-0.01721,0.00917,-1.00526,7e-05,0.00366,0.00428
1790809693.484961,-0.01722,0.01069,-1.0038,-0.00234,0.0032,0.00311
1790809693.515973,-0.01703,0.00774,-1.00123,0.00106,0.00366,0.00333
1790809693.525928,-0.01674,0.0083,-1.00173,-0.00204,0.00431,0.00112
1790809693.5491579,-0.01669,0.01045,-1.00294,0.0008,0.00136,0.00054
1790809693.563282,-0.018,0.00983,-1.00237,-0.0008,0.00231,0.00535
1790809693.584749,-0.0191,0.00997,-1.003,-0.00096,0.00163,0.00231
1790809693.5914629,-0.01939,0.01066,-1.0024,-0.00221,0.0032,0.00369
1790809693.6239932,-0.01915,0.00921,-1.00211,0.00087,0.00327,0.0025
1790809693.648433,-0.01861,0.00947,-1.0023,-0.00151,0.00252,0.00528
1790809693.663164,-0.01841,0.00878,-1.00222,-0.00018,0.00294,0.00261
1790809693.6917062,-0.01559,0.01001,-1.00312,-0.00217,0.00273,-0.00042
1790809693.7107682,-0.01779,0.00881,-1.00187,-0.00394,0.00302,0.00492
1790809693.723146,-0.01841,0.00794,-1.00207,-0.00067,0.00271,0.0049
1790809693.748966,-0.01802,0.00943,-1.00292,-0.0022,0.00187,0.00399
1790809693.78411,-0.01839,0.00838,-1.00335,-0.00223,0.00314,0.00299
1790809693.799204,-0.0167,0.01076,-1.00394,-0.0026,0.00403,0.00321
1790809693.82532,-0.01723,0.01055,-1.00435,-0.00167,0.00043,0.00475
1790809693.8447978,-0.01723,0.01055,-1.00435,-0.00167,0.00043,0.00475
1790809693.86556,-0.01693,0.01024,-1.00119,-0.00046,0.00146,0.00421
1790809693.884078,-0.01738,0.00926,-1.00339,-0.00143,0.00039,7e-05
1790809693.898271,-0.01695,0.01115,-1.00499,-0.00066,0.0022,0.00273
1790809693.9232361,-0.0177,0.00861,-1.00158,-0.00186,0.00089,0.003
1790809693.94366,-0.01832,0.01101,-1.00174,-0.00021,0.00223,0.0037
1790809693.965953,-0.01832,0.01101,-1.00174,-0.00021,0.00223,0.0037
1790809693.984555,-0.01882,0.00959,-1.00358,0.0009,0.00414,0.00131
1790809694.010448,-0.0177,0.01005,-1.00289,0.00085,0.00356,0.00396
1790809694.024253,-0.02008,0.00906,-1.00272,-4e-05,0.00208,0.00283
1790809694.0434072,-0.01811,0.01165,-1.00328,-0.00415,0.00395,0.00174
1790809694.063127,-0.01611,0.00874,-1.00252,-0.00318,-0.0,0.00652
1790809694.087318,-0.0155,0.00944,-1.00341,-0.00032,0.00283,0.00205
1790809694.098537,-0.01687,0.0096,-1.00317,-0.00061,0.0013,0.00444
1790809694.153553,-0.01741,0.01015,-1.00279,-0.00085,0.00167,0.00271
1790809694.160467,-0.01762,0.00839,-1.00345,0.00118,-0.00104,0.00631
1790809694.189613,-0.01721,0.0103,-1.00272,-0.00164,0.00062,0.00357
1790809694.207925,-0.01766,0.01032,-1.0037,-0.00057,0.00206,0.00522
1790809694.226539,-0.01992,0.00839,-1.00384,-0.00135,0.00336,0.00547
1790809694.252842,-0.01887,0.01076,-1.0034,0.00088,0.00286,0.00241
1790809694.264118,-0.01871,0.00886,-1.00261,-0.00108,0.0038,0.00537
1790809694.290828,-0.01972,0.00994,-1.00311,-0.00066,0.00297,0.00423
1790809694.298688,-0.01744,0.01064,-1.00395,-0.00345,0.00182,0.00335
1790809694.326709,-0.016,0.00916,-1.00305,-3e-05,0.00225,0.00279
1790809694.356707,-0.01547,0.00988,-1.0033,-0.00034,0.00208,0.00227
1790809694.377367,-0.01783,0.00945,-1.00184,-0.00211,0.00062,0.00405
1790809694.3990998,-0.01677,0.00997,-1.00181,-0.00094,0.00551,0.00116
1790809694.424631,-0.01715,0.01018,-1.00181,-0.00157,0.00215,0.00393
1790809694.448451,-0.01794,0.00975,-1.00225,0.00079,0.00175,0.00259
1790809694.465251,-0.0203,0.00898,-1.00322,-0.00127,0.00196,0.00508
1790809694.484459,-0.01937,0.00788,-1.00254,-0.00224,0.00346,0.00376
1790809694.504029,-0.01733,0.01133,-1.0021,-0.0015,0.0023,0.00081
1790809694.528467,-0.01618,0.008,-1.00313,-0.00024,0.00109,0.00483
1790809694.5502121,-0.0149,0.00951,-1.00237,-0.00259,0.0028,0.001
1790809694.569119,-0.01533,0.00806,-1.0028,0.00286,0.00193,0.00581
1790809694.587772,-0.01663,0.00656,-1.00192,-0.00024,-0.0006,0.00544
1790809694.6077921,-0.01704,0.01048,-1.00305,-9e-05,-0.00072,0.00293
1790809694.631998,-0.01857,0.00883,-1.00221,-0.00132,0.00292,0.00484
1790809694.64911,-0.01835,0.00959,-1.0031,-0.00023,0.00111,0.00013
1790809694.66359,-0.01873,0.00891,-1.00315,0.00249,0.00212,0.00151
1790809694.703531,-0.01916,0.00872,-1.00287,0.00012,0.00241,0.00235
1790809694.731231,-0.01914,0.00979,-1.00257,-0.00187,0.00291,0.00335
1790809694.745155,-0.01824,0.01063,-1.0028,-0.00149,0.00128,0.00326
1790809694.7642188,-0.01678,0.00966,-1.00314,0.00082,0.00078,0.00309
1790809694.784277,-0.01741,0.0093,-1.0028,-0.00034,0.00102,0.00212
1790809694.799049,-0.016,0.01142,-1.00278,-0.00022,0.00194,0.00375
1790809694.826077,-0.01646,0.0098,-1.00155,-0.00034,0.00353,0.00555
1790809694.84559,-0.01703,0.00869,-1.00153,-0.00101,0.00324,0.00252
1790809694.862998,-0.01675,0.01005,-1.00311,-5e-05,0.00399,0.00242
1790809694.88587,-0.01909,0.01092,-1.00431,-0.00037,0.0027,0.00532
1790809694.904518,-0.01892,0.01035,-1.00367,0.00049,4e-05,0.00449
1790809694.927972,-0.01883,0.00992,-1.00273,-0.00148,0.00361,0.00283
1790809694.948525,-0.01915,0.01073,-1.0018,-0.00036,0.00359,0.00453
1790809694.962176,-0.01862,0.00909,-1.00394,-0.00011,0.00197,0.00118
1790809695.004313,-0.01782,0.00797,-1.00422,0.00118,0.00413,0.00273
1790809695.025853,-0.01725,0.01064,-1.00261,-0.00146,0.00108,0.00504
1790809695.047713,-0.01779,0.00702,-1.00327,0.00109,0.00231,0.00498
1790809695.063482,-0.01785,0.0104,-1.00299,-0.00192,0.00128,0.00192
1790809695.093369,-0.01928,0.00887,-1.00139,-0.00047,0.00403,0.00372
1790809695.100443,-0.01824,0.0106,-1.00127,-0.00125,0.00246,0.00328
1790809695.132359,-0.01802,0.01035,-1.00194,0.0018,0.00298,0.00316
1790809695.1493099,-0.01763,0.00867,-1.00182,0.00195,0.00356,0.00253
1790809695.166002,-0.0155,0.00966,-1.00135,-0.00162,0.00299,0.00081
1790809695.185558,-0.01528,0.0081,-1.00174,-0.00039,0.00533,0.00442
1790809695.2208252,-0.01776,0.00945,-1.00189,-0.00152,0.00151,0.00394
1790809695.245905,-0.01822,0.01122,-1.00241,0.00035,0.0038,0.00629
1790809695.264213,-0.01849,0.01189,-1.00259,-0.00016,0.00357,-0.00013
1790809695.285244,-0.01974,0.00991,-1.00322,-0.00037,0.00251,0.00355
1790809695.305795,-0.01868,0.01076,-1.0033,0.00029,0.00104,0.00474
1790809695.332602,-0.01754,0.01141,-1.00229,-0.0009,0.00355,0.00359
1790809695.345948,-0.01901,0.00828,-1.00212,-0.00085,0.00261,0.00394
1790809695.3654442,-0.01754,0.01002,-1.00267,-0.00036,0.00136,0.00155
1790809695.386226,-0.01743,0.01094,-1.00202,-0.00283,0.00223,0.00347
1790809695.404982,-0.01659,0.00965,-1.0013,-0.0003,0.0025,0.00359
1790809695.421193,-0.01522,0.01089,-1.00294,-0.00204,0.00415,0.00282
1790809695.46421,-0.01636,0.0087,-1.00487,8e-05,0.00371,0.00465
1790809695.4810822,-0.01779,0.00949,-1.00248,-9e-05,0.00309,0.00347
1790809695.5070999,-0.01792,0.00984,-1.00096,-0.00253,0.00356,0.00214
1790809695.532896,-0.01914,0.00858,-1.00325,-0.00171,0.00365,0.00361
1790809695.5649421,-0.01917,0.01123,-1.00239,-0.00237,0.00139,0.00328
1790809695.585571,-0.01948,0.01102,-1.00185,0.00083,0.00352,0.00206
1790809695.6038778,-0.01938,0.01083,-1.00077,1e-05,0.00107,0.00244
1790809695.635782,-0.01706,0.0092,-1.00237,0.00013,0.00264,0.00256
1790809695.6448472,-0.01689,0.01013,-1.00509,-0.00291,0.00386,0.00162
1790809695.6698549,-0.01726,0.00957,-1.00404,-0.00038,0.00104,0.00413
1790809695.691402,-0.01726,0.00957,-1.00404,-0.00038,0.00104,0.00413
1790809695.703852,-0.01714,0.01054,-1.00303,-0.00166,0.0038,0.0023
1790809695.7318358,-0.01795,0.00914,-1.00395,-0.00134,0.00027,0.00415
1790809695.74634,-0.01744,0.00957,-1.00329,-0.00159,-0.00036,0.0018
1790809695.764199,-0.01802,0.00958,-1.00257,0.00026,0.00387,0.00331
1790809695.784626,-0.02129,0.00722,-1.00101,0.00228,0.00471,0.00573
1790809695.804613,-0.02108,0.0123,-1.00216,-0.00131,0.00302,-0.00199
1790809695.829762,-0.02067,0.00862,-1.0023,-0.00058,0.00443,0.00698
1790809695.852326,-0.01789,0.00851,-1.00204,0.00048,0.00317,0.00364
1790809695.869204,-0.01671,0.01155,-1.00231,0.00348,0.00336,0.00062
1790809695.886639,-0.01876,0.00887,-1.0024,-0.00271,0.00282,0.0045
1790809695.904067,-0.01745,0.01012,-1.00245,-0.00364,0.00151,0.00324
1790809695.91755,-0.01689,0.01062,-1.00289,0.00167,0.00074,0.00312
1790809695.947202,-0.01802,0.00911,-1.00408,-0.00024,0.00168,0.00525
1790809695.968742,-0.01713,0.01048,-1.00386,-0.0006,0.00317,0.00185
1790809695.98371,-0.0172,0.01086,-1.0034,-0.00131,0.0021,0.00402
1790809696.003905,-0.01828,0.00909,-1.0012,-0.0031,0.00216,0.00369
1790809696.020127,-0.01715,0.01073,-1.002,-0.00212,0.0056,0.00288
1790809696.045213,-0.01766,0.00894,-1.00403,0.00021,0.00148,0.00523
1790809696.087262,-0.01702,0.01025,-1.00397,-0.00496,0.0041,0.00256
1790809696.103002,-0.01724,0.00903,-1.00383,-0.00213,0.00289,0.00637
1790809696.120009,-0.01732,0.00983,-1.00213,-0.00125,0.00234,0.00312
1790809696.1455822,-0.0198,0.00872,-1.00321,6e-05,0.00121,0.00512
1790809696.1676722,-0.01807,0.0098,-1.00259,0.00108,0.00273,0.00372
1790809696.194897,-0.01784,0.01109,-1.00218,0.00321,0.00168,0.00356
1790809696.2055008,-0.01761,0.00842,-1.00161,-0.00236,0.00249,0.0042
1790809696.2214,-0.01613,0.01146,-1.00214,0.00138,0.0048,0.00107
1790809696.245297,-0.01779,0.00984,-1.00226,-0.00307,0.00278,0.00324
1790809696.288434,-0.01721,0.00863,-1.00101,-0.00095,0.00323,0.00183
1790809696.305193,-0.01619,0.01063,-1.00348,0.00016,0.00392,0.0029
1790809696.3181381,-0.01655,0.00915,-1.00299,0.0004,0.00392,0.0024
1790809696.345678,-0.01706,0.00949,-1.00329,-0.00162,0.0016,0.00418
1790809696.3680582,-0.01709,0.01045,-1.00298,-0.00297,0.00236,0.00186
1790809696.384897,-0.01871,0.01034,-1.0027,0.00058,0.00471,0.00146
1790809696.406629,-0.01923,0.00852,-1.00305,-0.00067,0.00303,0.00635
1790809696.423303,-0.01854,0.01093,-1.00263,-0.00067,0.00332,-0.00072
1790809696.44549,-0.01848,0.00903,-1.00229,-0.0015,0.00478,0.00377
1790809696.4670541,-0.01772,0.01001,-1.00292,0.00017,0.0021,0.00151
1790809696.48595,-0.01747,0.01033,-1.00312,-0.00143,0.00257,0.00496
1790809696.503789,-0.01634,0.00903,-1.00323,-0.00294,0.00037,0.0049
1790809696.523573,-0.01629,0.00905,-1.00296,9e-05,0.00113,0.00324
1790809696.547988,-0.01653,0.009,-1.00261,-0.00038,0.00242,0.00356
1790809696.5623171,-0.01871,0.0087,-1.0039,-0.001,0.00431,0.00374
1790809696.585386,-0.01882,0.01194,-1.00293,-0.00216,0.00312,0.005
1790809696.609684,-0.01915,0.00989,-1.00025,-4e-05,0.00117,0.0033
1790809696.623175,-0.01696,0.01006,-1.0026,-0.00203,0.00431,0.00466
1790809696.651149,-0.01592,0.0097,-1.00347,-0.00079,0.00344,0.005
1790809696.6652029,-0.01767,0.00797,-1.00286,0.00066,0.00233,0.00163
1790809696.7156239,-0.01961,0.00907,-1.00015,-0.00166,0.00419,0.00481
1790809696.7247949,-0.01816,0.00838,-1.00194,0.00106,0.00142,0.00415
1790809696.746357,-0.01829,0.00962,-1.00354,-0.00399,0.0024,0.00404
1790809696.767853,-0.01855,0.00932,-1.00204,-0.00184,0.00547,0.00366
1790809696.784896,-0.0175,0.00909,-1.0012,-0.00176,0.00051,0.00125
1790809696.803977,-0.01743,0.00936,-1.00321,0.00087,0.00449,0.00372
1790809696.8138611,-0.01753,0.00926,-1.00409,0.00059,0.00057,0.00258
1790809696.8503182,-0.01745,0.00865,-1.00379,-9e-05,0.00015,0.00228
1790809696.865288,-0.01865,0.00942,-1.00212,-0.00228,0.00227,0.00387
1790809696.884326,-0.0181,0.01018,-1.00323,0.00139,0.00409,0.00149
1790809696.9056818,-0.01858,0.00937,-1.00289,-0.00179,0.00453,0.00255
1790809696.92515,-0.02111,0.0091,-1.00205,0.00131,0.00179,0.00473
1790809696.95153,-0.02022,0.01024,-1.00342,-0.0011,0.00316,0.00162
1790809696.963278,-0.01861,0.01005,-1.00346,0.00015,0.00094,0.00335
1790809697.004405,-0.0165,0.01028,-1.00165,3e-05,0.00314,-0.00069
1790809697.020101,-0.01697,0.00972,-1.00148,0.00148,0.00355,0.00343
1790809697.049664,-0.01692,0.0076,-1.00267,-0.0004,0.00192,0.00262
1790809697.068908,-0.01576,0.00997,-1.00466,-0.00284,-0.00018,0.00188
1790809697.086598,-0.01712,0.00898,-1.00407,-0.00177,0.00102,0.00585
1790809697.107404,-0.01754,0.0091,-1.00284,0.00156,0.00278,0.00348
1790809697.117909,-0.01759,0.00982,-1.00216,-0.00111,0.00401,0.00293
1790809697.148235,-0.01917,0.00832,-1.00168,0.00132,0.00345,0.0059
1790809697.164192,-0.01922,0.00953,-1.0042,0.00081,0.00088,0.0033
1790809697.1877499,-0.01843,0.0107,-1.00246,-0.00027,0.00171,0.00308
1790809697.2049642,-0.02008,0.00919,-1.00116,-0.00402,0.00203,0.00636
1790809697.245194,-0.01911,0.01005,-1.00339,-0.00243,0.00272,0.00159
1790809697.264338,-0.01839,0.00847,-1.00348,9e-05,0.00245,0.00414
1790809697.285227,-0.01839,0.00847,-1.00348,9e-05,0.00245,0.00414
1790809697.307938,-0.01634,0.00921,-1.0032,-0.00058,0.00323,0.00409
1790809697.323452,-0.01552,0.00859,-1.00317,-0.00245,0.00376,0.00314
1790809697.345487,-0.01631,0.01019,-1.00179,-0.00047,0.00631,0.00254
1790809697.366098,-0.01752,0.00871,-1.00181,-0.00109,0.0029,0.0039
1790809697.391127,-0.01757,0.01067,-1.00205,0.00197,0.004,0.00311
1790809697.404348,-0.01945,0.00928,-1.00368,-0.00124,-0.0008,0.00341
1790809697.425167,-0.02078,0.00774,-1.00388,0.0002,0.00189,0.0013
1790809697.447388,-0.01813,0.00989,-1.0037,-0.00315,0.00274,0.00343
1790809697.465929,-0.01819,0.00858,-1.00318,-0.00167,0.00272,0.00163
1790809697.503107,-0.0172,0.01045,-1.00139,-0.00015,0.00126,0.00429
1790809697.522314,-0.01528,0.00935,-1.00165,-0.00126,0.0024,0.00409
1790809697.545244,-0.01747,0.0102,-1.00269,-0.00066,0.0,0.002
1790809697.564338,-0.01864,0.01074,-1.00315,-0.00121,0.00261,0.00321
1790809697.589314,-0.01936,0.00956,-1.00128,-0.00134,0.00165,0.0035
1790809697.604191,-0.01917,0.00866,-1.00191,0.00052,0.00028,0.00296
1790809697.6257448,-0.01858,0.00916,-1.00282,-0.00266,0.00425,0.00149
1790809697.647943,-0.01787,0.00991,-1.00187,-0.00069,0.00278,0.00396
1790809697.664186,-0.01672,0.00988,-1.00342,-0.00145,0.00245,0.00361
1790809697.714815,-0.01667,0.0098,-1.00353,0.00157,0.00341,0.00046
1790809697.7451258,-0.01693,0.00906,-1.00192,-0.0006,0.00293,0.00506
1790809697.763575,-0.01679,0.00976,-1.00177,-9e-05,0.0019,0.00401
1790809697.787734,-0.01875,0.00859,-1.00371,-0.0006,0.00229,0.00409
1790809697.804505,-0.01974,0.01042,-1.00165,-4e-05,0.00032,0.00389
1790809697.8270469,-0.01914,0.0098,-1.00165,0.0012,0.00065,0.00279
1790809697.846539,-0.01765,0.00927,-1.00482,-0.00106,0.00544,0.00477
1790809697.863019,-0.01701,0.00846,-1.00404,-0.00096,0.002,0.00398
1790809697.884053,-0.01637,0.01043,-1.00188,-0.00408,0.0033,0.00285
1790809697.904557,-0.01709,0.00904,-1.004,0.00014,0.00414,0.00344
1790809697.927496,-0.01719,0.00719,-1.005,0.00293,0.0035,0.00411
1790809697.946236,-0.0172,0.01019,-1.00293,0.00104,0.00314,0.00479
1790809697.97147,-0.01747,0.00925,-1.0021,0.00015,0.003,0.00454
1790809697.986028,-0.01796,0.00816,-1.00247,-0.00184,-0.00101,0.00272
1790809698.005037,-0.01826,0.01061,-1.00276,-0.00125,0.00233,0.00299
1790809698.02786,-0.01852,0.00954,-1.00218,-0.00194,0.00081,0.00388
1790809698.045642,-0.01791,0.01,-1.00277,-0.0004,0.00165,-0.00073
1790809698.065702,-0.01853,0.01,-1.00417,-0.00046,0.00463,0.00319
1790809698.084623,-0.01864,0.00919,-1.00274,-0.00067,0.00401,0.00365
1790809698.106475,-0.01678,0.01058,-1.00341,0.00069,0.00175,0.00126
1790809698.126166,-0.01691,0.00959,-1.00341,-0.00262,0.00377,0.00234
1790809698.147978,-0.01812,0.00911,-1.00404,-0.00218,0.00468,0.00287
1790809698.16527,-0.01891,0.01041,-1.00276,-0.00091,0.00358,0.00227
1790809698.1903412,-0.01878,0.00927,-1.00232,-0.00125,0.00318,0.00425
1790809698.204967,-0.01801,0.00993,-1.00261,-0.00205,0.00219,0.00108
1790809698.228318,-0.01577,0.0106,-1.0026,-0.00067,0.00244,0.00246
1790809698.2462442,-0.01527,0.01083,-1.00167,-6e-05,0.00304,0.00381
1790809698.2637691,-0.01576,0.00921,-1.00241,0.00132,0.00177,0.00319
1790809698.286597,-0.01658,0.0103,-1.00333,0.00238,0.0029,0.00258
1790809698.3073049,-0.01895,0.00847,-1.00186,-0.00027,0.00285,0.00417
1790809698.327165,-0.01971,0.00925,-1.00235,-0.00062,0.00167,0.00356
1790809698.364331,-0.01936,0.00863,-1.00266,-0.00071,0.00041,0.00602
1790809698.384347,-0.01746,0.01037,-1.00422,-0.00234,0.00081,0.00073
1790809698.4080472,-0.01848,0.00982,-1.00454,0.00058,0.00291,0.00307
1790809698.425619,-0.01874,0.01064,-1.00425,0.00089,0.0012,0.00279
1790809698.446489,-0.01873,0.00927,-1.00313,-0.00249,0.00251,0.00403
1790809698.4648361,-0.01617,0.00904,-1.00309,4e-05,0.00239,0.00369
1790809698.484071,-0.01555,0.00992,-1.0041,-0.00242,0.00159,0.00315
1790809698.503815,-0.01629,0.00921,-1.00386,0.00183,0.00436,0.00352
1790809698.525623,-0.01674,0.01029,-1.00323,-0.00033,0.00353,-0.00053
1790809698.548594,-0.01707,0.00861,-1.00359,0.00132,0.00196,0.00182
1790809698.5642471,-0.01728,0.00855,-1.00435,-0.00172,0.00222,0.00436
1790809698.5839539,-0.01726,0.00923,-1.00226,-0.00115,0.00286,0.00075
1790809698.628201,-0.01831,0.0106,-1.00305,0.00108,0.00347,0.00502
1790809698.664654,-0.01921,0.00974,-1.00344,-0.00192,-0.00011,0.00253
1790809698.684364,-0.01923,0.00942,-1.00165,-0.00167,0.00542,0.00244
1790809698.709314,-0.01866,0.00985,-1.00062,-0.00071,0.00383,0.00445
1790809698.7288609,-0.017,0.01127,-1.00173,-0.0026,0.0027,0.00382
1790809698.744858,-0.01916,0.00978,-1.00361,-0.0006,0.00281,0.00388
1790809698.764865,-0.01896,0.00914,-1.00272,-0.0014,0.0035,0.00412
1790809698.790714,-0.01776,0.01062,-1.00406,-0.00307,0.00217,0.00256
1790809698.807632,-0.01729,0.00931,-1.00376,-0.00117,0.00315,0.00558
1790809698.8259141,-0.01673,0.00928,-1.00342,-0.00228,0.00187,0.00239
1790809698.847923,-0.01683,0.00846,-1.00305,-0.00078,0.00095,0.00338
1790809698.8693519,-0.01758,0.00884,-1.00403,0.00014,0.00233,0.00263
1790809698.9083772,-0.01983,0.00943,-1.00253,-0.00232,0.00477,0.00352
1790809698.9251359,-0.01792,0.00984,-1.00362,-0.00293,0.0024,0.00184
1790809698.944214,-0.01722,0.00895,-1.0033,0.00194,0.00359,0.00188
1790809698.96658,-0.01709,0.00991,-1.00266,-0.00402,0.00225,0.00421
1790809698.985045,-0.0172,0.01245,-1.00385,0.00182,0.00143,0.00335
