unix_timestamp,acc_x,acc_y,acc_z,gyro_x,gyro_y,gyro_z
1790595221.7215364,-0.01338,0.00776,-1.00033,-0.00011,0.00285,0.00162
1790595221.8676374,-0.01248,0.00773,-0.99963,0.00156,0.00258,-0.00081
1790595222.0184245,-0.01551,0.00745,-1.00017,0.00302,0.0041,0.0028
1790595222.0281162,-0.01384,0.00695,-0.99967,-0.00014,0.00372,0.00131
1790595222.1629412,-0.01432,0.00981,-1.00061,4e-05,0.00481,0.00022
1790595222.3176634,-0.01209,0.00833,-1.00152,-0.0002,0.00178,-0.00021
1790595222.352757,-0.01489,0.00862,-1.00057,0.00162,0.0045,-0.00054
1790595222.4681284,-0.01439,0.00652,-1.00147,0.00197,0.00425,0.0033
1790595222.6050153,-0.01326,0.00755,-0.99992,0.00464,0.00184,0.0046
1790595222.652756,-0.01352,0.00903,-1.0015,-0.0001,0.00199,0.00252
1790595222.7480462,-0.01476,0.00818,-1.00058,0.00106,0.00389,0.0014
1790595222.8911135,-0.01289,0.00782,-1.00117,-0.00124,0.00476,0.00165
1790595223.0376828,-0.01404,0.0026,-0.99942,0.00211,0.00457,0.003
1790595223.0678427,-0.01528,0.005,-1.0023,0.00307,0.00693,0.00744
1790595223.1826339,-0.0122,0.01264,-1.00246,0.00012,0.00491,-0.00208
1790595223.3126945,-0.01372,0.00909,-1.00232,0.00223,0.0026,-0.00226
1790595223.437603,-0.01301,0.00826,-1.00232,0.0018,0.0053,0.00011
1790595223.4678228,-0.01326,0.00855,-1.00121,0.0006,0.00269,0.0003
1790595223.607716,-0.01622,0.00819,-0.99989,0.00082,0.00349,0.0007
1790595223.7869248,-0.0123,0.00761,-1.00185,0.00177,0.00535,0.00175
1790595223.7879326,-0.01404,0.0084,-1.00016,0.00095,0.00149,0.00052
1790595223.9141889,-0.03577,-0.0484,-1.00071,0.01736,-0.01929,0.16781
1790595223.9755075,0.00114,0.02092,-1.00107,0.00161,0.00381,0.37798
1790595224.2637174,-0.02093,0.04517,-1.01778,0.01158,-0.02474,0.44728
1790595224.2956681,0.00655,0.00781,-0.99928,-0.00406,-0.00709,0.507
1790595224.428103,-0.02178,-0.0257,-1.00008,-0.01385,0.00758,0.48235
1790595224.5982337,-0.03964,-0.02359,-1.00164,0.00849,0.01191,0.06759
1790595224.6080139,-0.02264,-0.02257,-1.00175,0.00759,0.00258,0.06685
1790595224.837974,0.0003,-0.00049,-1.00036,0.00338,0.00222,0.04354
1790595224.8525207,0.25717,0.17066,-0.98388,0.00368,0.00493,-0.23397
1790595224.9480698,0.11681,-0.177,-0.93773,0.43317,-0.10973,0.34065
1790595225.0880125,0.18631,-0.06712,-1.09273,0.03809,0.11457,-0.71022
1790595225.1379783,0.1137,0.14742,-1.06523,0.01418,-0.04114,-1.23929
1790595225.2178392,0.04952,-0.17215,-1.01435,0.02957,0.0333,-0.05448
1790595225.3082244,-0.05894,0.02378,-1.1404,-0.01554,-0.11716,-0.53062
1790595225.4126346,-0.07797,-0.01705,-0.8015,-0.3683,-0.05813,-0.95353
1790595225.6079242,-0.09676,-0.04541,-1.01335,0.62324,0.4333,-0.0665
1790595225.6079242,-0.25376,0.1494,-0.99918,0.19955,-0.07083,0.42826
1790595225.7181568,-0.3111,0.01243,-0.97504,-0.08823,-0.02969,0.2873
1790595225.9011912,-0.19253,-0.22251,-0.9995,0.03702,-0.00723,0.66606
1790595226.0978382,-0.05419,-0.00776,-1.01733,0.00681,0.00254,0.41748
1790595226.2146015,0.0849,0.05531,-1.00136,0.00791,0.00392,0.06922
1790595226.307662,0.0086,0.01869,-1.0006,0.00644,0.00313,0.07891
1790595226.429165,-0.04144,0.02883,-1.0013,0.00769,-0.00092,0.03829
1790595226.4324787,-0.02777,0.03434,-1.00367,-0.00126,0.00361,-0.00022
1790595226.609508,-0.00818,0.01387,-1.00205,0.0031,0.00317,0.01555
1790595226.682557,-0.0039,-0.00027,-1.00303,0.00167,0.00458,0.00102
1790595226.92253,0.00338,-0.00427,-1.00057,0.00883,0.00858,0.0171
1790595227.128085,-0.00341,0.00824,-1.00045,0.00182,0.0013,-0.02111
1790595227.128085,-2e-05,0.02285,-1.00238,0.00276,0.00105,-0.03256
1790595227.3326972,0.00065,0.03242,-0.99967,-0.00078,0.00327,-0.03272
1790595227.3326972,0.00025,0.01601,-1.00003,0.00336,-0.00382,-0.01744
1790595227.5177386,0.0016,0.03113,-1.00027,0.00414,0.002,-0.03034
1790595227.6124947,-0.00144,0.0303,-1.00223,0.0003,0.00143,-0.01871
1790595227.7427623,-0.00258,0.02721,-1.00343,0.00516,0.0036,-0.01866
1790595227.9477797,-0.00253,0.02166,-1.00357,0.00552,0.00533,0.00567
1790595227.9526372,-0.00827,-0.00158,-1.00003,0.00664,-0.00101,0.03195
1790595228.1482186,-0.0142,-0.01064,-1.00276,0.01028,-0.00136,0.04312
1790595228.3178682,-0.03686,-0.02504,-1.00556,0.0121,-0.00443,0.06007
1790595228.5625863,-0.01671,0.00021,-1.00105,0.00459,0.00087,0.01136
1790595228.569182,-0.00925,-0.0004,-0.99932,0.00661,0.00556,-0.00128
1790595228.7730286,-0.00284,0.00965,-1.00272,0.00591,0.00394,-0.02074
1790595228.7901285,0.00033,0.02173,-1.00106,0.00091,0.00467,-0.03347
1790595228.9678109,0.00053,0.02543,-0.99993,0.0052,0.00772,-0.03077
1790595229.1788623,1e-05,0.02468,-1.00119,0.0056,0.00433,-0.0032
1790595229.1878917,-0.00529,0.01163,-1.00082,0.00608,0.00249,0.0162
1790595229.3826885,-0.00796,-0.00348,-1.00053,0.00859,0.00132,0.03739
1790595229.3947647,-0.01128,-0.011,-0.99995,0.01026,-0.00022,0.03549
1790595229.578205,-0.01443,-0.01595,-1.00295,0.0087,0.00353,0.03153
1790595229.628369,-0.0124,-0.01007,-1.00358,0.00763,0.00442,0.01812
1790595229.7898176,-0.00984,-0.00741,-1.00217,0.00558,0.00411,0.00324
1790595229.992868,-0.00911,0.00478,-1.0042,0.00191,0.00049,-0.01494
1790595229.9979162,-0.00137,0.0117,-1.00037,0.00036,0.00201,-0.02883
1790595230.187705,-0.00767,0.00849,-1.00235,0.01028,0.00159,0.00393
1790595230.4027052,-0.00826,0.00263,-1.00284,0.00509,0.00473,-0.00548
1790595230.4125144,-0.00116,0.01698,-1.00052,0.0056,0.00468,-0.01971
1790595230.613014,-0.00387,0.02302,-1.00239,0.00979,0.00553,-0.00791
1790595230.613014,-0.0035,0.00961,-1.0022,0.00463,0.002,0.0139
1790595230.8178458,-0.00979,0.00059,-1.00137,0.01004,0.00119,0.03171
1790595230.9478807,-0.00927,-0.00229,-1.00104,0.00801,0.0013,0.04017
1790595231.0270424,-0.01328,-0.01415,-1.0012,0.00765,0.00073,0.03972
1790595231.1578348,-0.01527,-0.00962,-1.0022,0.00896,0.00206,0.0283
1790595231.267935,-0.01178,-0.01036,-1.00163,0.00441,0.00688,0.01728
1790595231.328293,-0.01232,0.0029,-1.0015,0.00439,0.00108,-0.01241
1790595231.427724,0.00782,0.05936,-1.00006,0.00631,0.01038,-0.14068
1790595231.5282164,-0.01107,-0.00565,-1.00292,0.01292,0.00712,-0.13873
1790595231.6281917,0.00494,-0.02075,-1.00103,0.00805,0.00745,-0.18073
1790595231.7629082,-0.00501,0.01011,-1.00277,0.00677,0.01036,-0.17854
1790595231.8357606,-0.01369,0.02767,-1.00046,0.00813,0.0103,-0.16084
1790595231.9679163,-0.00851,0.00527,-1.00324,0.00614,0.00827,-0.17104
1790595232.037725,0.00993,-0.00234,-1.00162,0.00776,0.00827,-0.17661
1790595232.2517326,0.0011,0.00461,-1.00182,0.00547,0.00493,-0.15384
1790595232.2517326,-0.02415,-0.01282,-1.00202,0.00151,0.00708,-0.00349
1790595232.4528153,-0.00057,0.02479,-1.00148,0.00245,0.00171,-0.02937
1790595232.6625524,-0.00265,0.04427,-1.00368,0.0043,-0.00567,-0.05077
1790595232.777689,-0.0039,0.02224,-1.00143,0.0031,0.00314,-0.02198
1790595232.8698723,0.00034,0.0141,-1.00397,0.00813,0.0067,-0.00519
1790595232.9522276,0.02851,0.01955,-1.00111,0.00113,0.01761,-0.01012
1790595233.0758502,0.21859,0.0202,-1.01186,0.02603,0.00669,-0.04591
1790595233.270416,0.14167,0.02736,-1.00142,0.00312,-0.01858,-0.045
1790595233.270416,-0.0352,-0.04187,-1.00267,-0.05154,0.00067,0.05413
1790595233.4826205,-0.11731,0.03386,-1.00397,0.01665,-0.00867,-0.03218
1790595233.4880269,-0.03878,0.0348,-0.98303,0.02936,0.0116,0.00543
1790595233.673039,0.06347,-0.00906,-1.00652,0.01865,0.00397,0.01333
1790595233.673039,0.05668,0.03082,-0.96683,-0.01037,0.0149,-0.00408
1790595233.8896174,-0.02996,0.0132,-0.98781,0.00893,0.01597,-0.02141
1790595234.0875351,-0.00447,0.03363,-0.98095,0.01841,0.01106,-0.00929
1790595234.2926395,0.00983,0.00196,-0.98432,-0.01093,0.03039,0.00213
1790595234.2979314,-0.021,0.01162,-0.97303,0.00024,0.00502,0.01008
1790595234.4977098,-0.02658,0.01788,-0.99495,0.00732,0.00142,0.00238
1790595234.5179071,0.01402,0.01203,-0.94694,-0.05779,0.0516,0.02536
1790595234.678336,0.00074,0.00866,-1.00546,0.01752,0.01052,0.0088
1790595234.6874828,-0.03071,-0.02177,-1.04958,0.00637,-0.03254,0.07732
1790595234.9176345,-0.10526,-0.07524,-0.99736,0.01028,0.01521,0.06746
1790595235.1076639,-0.04508,0.03142,-1.00551,-0.0133,-0.00328,4e-05
1790595235.3203857,-0.05377,0.05673,-0.99638,0.0098,0.00829,-0.0348
1790595235.336093,0.00598,0.00766,-1.00828,0.00112,0.00291,-6e-05
1790595235.4048774,0.03761,-0.01465,-1.00621,-0.0031,0.00926,0.03132
1790595235.517772,-0.0638,0.06994,-1.00447,0.00909,-0.01588,-0.00825
1790595235.678278,-0.09003,0.00049,-1.00328,0.00254,0.00298,0.0181
1790595235.7282226,-0.02331,-0.00405,-1.00348,0.00786,0.00631,0.0222
1790595235.907926,-0.015,0.01105,-1.00194,0.00809,0.00126,0.00017
1790595235.9152796,-0.01061,0.00859,-1.00325,0.00559,0.00546,-0.00531
1790595236.1374578,-0.01058,0.00718,-1.00312,0.00533,0.00245,0.00085
1790595236.1486921,-0.00545,0.0076,-1.00202,0.00516,0.00456,0.00121
1790595236.342718,-0.00913,0.00521,-1.0001,0.00521,0.00639,0.00376
1790595236.3503153,-0.0089,0.00756,-1.00181,0.00374,0.00256,0.00144
1790595236.468649,-0.00647,0.00663,-1.00109,0.00668,0.00454,0.00126
1790595236.5516365,-0.00759,0.0078,-1.00062,0.00572,0.00605,0.00124
1790595236.6377559,-0.00654,0.0097,-1.00068,0.00384,0.00622,-0.00187
1790595236.7553499,-0.0079,0.01031,-0.99982,0.00653,0.0045,4e-05
1790595236.9587948,-0.01508,0.00109,-1.00383,0.00863,0.00162,0.02338
1790595236.96843,-0.01113,0.00811,-1.00079,0.00534,0.00267,0.00096
1790595237.1629117,-0.00616,0.01098,-1.00212,0.00504,0.00405,-0.00148
1790595237.176113,-0.00965,0.00608,-1.0011,0.00476,0.00465,0.00339
1790595237.3689284,-0.00223,0.02765,-1.0007,0.0041,0.0018,-0.00901
1790595237.5419104,-0.00791,0.0078,-1.00248,0.0071,0.00118,0.00687
1790595237.7026157,-0.00987,-0.00919,-1.0015,0.00376,0.00887,0.02967
1790595237.9828982,-0.00501,0.00936,-0.99957,0.00226,0.00161,0.00352
1790595237.9874663,-0.00898,0.01313,-0.99999,0.00872,0.00345,-0.00093
1790595238.1877906,-0.0058,0.00575,-1.00236,0.00378,0.00188,0.0018
1790595238.1900125,0.00614,0.02044,-0.9996,6e-05,0.00558,-0.03551
1790595238.3722246,-0.01551,0.0017,-1.00177,0.00402,-0.00054,-0.00548
1790595238.3722246,-0.00881,0.00135,-1.001,0.0049,0.00334,-0.00286
1790595238.598149,0.00064,0.0147,-1.00234,0.00236,-0.00474,-0.00955
1790595238.7076724,-0.00698,0.01429,-1.00194,0.00445,0.00023,-0.0013
1790595238.797798,-0.00383,0.00915,-1.0019,0.006,0.00561,-0.00419
1790595239.007975,-0.00899,0.0086,-1.00313,0.00361,0.00337,0.00016
1790595239.2129266,-0.00953,0.00294,-1.00017,0.00582,0.00367,0.00929
1790595239.2129266,-0.00849,0.00585,-0.99969,0.00364,0.00384,0.00205
1790595239.4129517,-0.00935,0.00792,-1.00149,0.00148,0.00456,-0.00653
1790595239.4185944,-0.00672,0.01316,-1.00096,0.00789,0.00249,-0.01275
1790595239.618434,-0.00549,0.01477,-1.00234,0.00505,0.00293,-0.00481
1790595239.7177937,-0.00757,0.01171,-1.00193,0.00684,0.00069,0.00455
1790595239.822645,-0.0108,0.00274,-1.00244,0.00443,0.00638,0.01648
1790595240.027666,-0.01102,-0.0001,-1.00295,0.00414,0.00207,0.00814
1790595240.2075424,-0.02074,-0.02188,-1.00296,0.00295,0.00261,0.02801
1790595240.437486,-0.01133,-0.00244,-1.00105,0.00588,0.00529,0.01621
1790595240.437486,-0.00686,0.00656,-1.00269,0.00511,0.00626,0.02225
1790595240.5029259,-0.01195,-0.00262,-1.00117,0.00628,0.00371,0.01948
1790595240.6456466,-0.00958,0.00031,-1.00114,0.00347,0.00439,0.01282
1790595240.7274961,-0.00956,0.00467,-1.0012,0.00465,0.00319,-0.0019
1790595240.849717,-0.02219,0.01071,-1.00396,0.00761,-0.00509,-0.0191
1790595240.8754606,-0.00436,0.02546,-1.0026,0.00331,0.00253,-0.02273
1790595241.0575807,-0.00811,0.01463,-1.0018,0.00709,0.00163,-0.0134
1790595241.0736647,-0.00729,0.01632,-1.00218,0.00393,0.00598,-0.01066
1790595241.2624445,-0.006,0.01189,-1.00032,0.00519,0.00336,-0.00154
1790595241.273387,-0.00796,0.00703,-0.9995,0.00701,0.00251,0.01203
1790595241.4672847,-0.01062,0.00139,-1.0015,0.00711,0.00183,0.01523
1790595241.4748194,-0.00998,-4e-05,-1.00172,0.00812,0.00574,0.01594
1790595241.6676874,-0.01079,0.01608,-1.00257,-0.00247,-0.00583,-0.04475
1790595241.6716363,-0.00661,0.0112,-1.00206,0.00689,0.0043,-0.0024
1790595241.789787,-0.00887,0.00739,-1.00075,0.00319,0.00383,0.00291
1790595241.8776276,-0.00806,0.00478,-1.00156,0.00145,-0.00029,-0.00528
1790595242.0791626,-0.0055,0.01715,-1.00183,0.00454,0.00094,-0.01662
1790595242.0927694,-0.00441,0.02326,-1.00161,0.00414,0.00316,-0.01938
1790595242.2804732,0.00266,0.02178,-1.00099,0.00484,0.00826,-0.01192
1790595242.2942164,0.18209,0.02666,-1.00036,0.02515,0.02435,-0.11519
1790595242.4349928,0.15404,0.02024,-0.9999,-0.00255,0.00932,0.04688
1790595242.4975808,0.05,0.12211,-0.97417,-0.03533,-0.01068,-0.03261
1790595242.5926213,-0.07508,0.05439,-0.99932,0.01909,-0.00508,-0.00591
1790595242.693221,-0.07101,-0.09832,-1.00803,0.03904,-0.00587,0.02665
1790595242.8159342,-0.0171,-0.06488,-1.03551,0.02111,0.00222,-0.00015
1790595242.8978221,0.0542,0.03453,-0.992,0.01115,-0.08252,-0.06385
1790595243.102894,0.00451,-0.02356,-0.98917,-0.0037,0.0046,-0.00593
1790595243.1074717,-0.04606,-0.05217,-1.00575,0.02956,0.00985,-0.00501
1790595243.217452,-0.02592,0.02147,-0.99703,0.00762,0.03174,-0.00666
1790595243.3076835,-0.0161,0.06381,-1.00689,-0.00258,0.01671,0.00683
1790595243.5126607,0.02443,0.09794,-0.97239,-0.00348,-0.00345,-0.03097
1790595243.71792,-0.02687,-0.01555,-1.02884,0.00016,0.01119,0.0233
1790595243.7525291,0.01291,0.02812,-0.99582,0.01444,0.00634,-0.01698
1790595243.9178588,-0.02761,0.0039,-1.01515,-0.00855,-0.00154,0.03048
1790595244.127609,0.00427,-0.01041,-1.00384,0.00793,-0.02009,-0.00383
1790595244.127609,-0.10602,-0.05348,-0.98973,0.00951,-0.00363,0.0069
1790595244.3279312,-0.07118,0.01424,-0.99244,0.00315,0.00444,-0.04031
1790595244.3279312,-0.13019,0.05219,-1.00564,0.01498,0.00328,0.052
1790595244.5281777,-0.02475,0.01402,-0.99964,0.0104,0.00521,0.00713
1790595244.6881428,-0.00965,0.00661,-1.00087,0.00543,0.00412,-0.00238
1790595244.6975582,-0.00363,0.01029,-1.00189,0.00561,0.00243,-0.00023
1790595244.7520268,-0.00072,0.00821,-1.00153,0.0057,0.00348,0.00083
1790595244.947911,-0.00466,0.00618,-1.00106,0.0052,0.00246,0.00108
1790595244.9560087,-0.00436,0.00858,-1.00077,0.00501,0.00516,-0.00129
1790595245.1176162,-0.00639,0.00853,-0.99898,0.00526,0.00454,0.00188
1790595245.348455,-0.0048,0.00863,-1.00169,0.00406,0.00258,0.00322
1790595245.457921,-0.00709,0.00562,-1.00182,0.00419,0.00482,0.00422
1790595245.5605264,-0.00542,0.00464,-1.00075,0.005,0.00348,0.0067
1790595245.72788,-0.00519,0.01047,-0.99858,0.00388,0.00162,0.00239
1790595245.967832,-0.00422,0.0101,-1.00068,0.00608,0.00219,0.00058
1790595245.967832,-0.01262,0.00869,-1.00131,0.00634,0.01217,0.00757
1790595245.9724724,-0.00332,0.00999,-1.00117,0.00233,0.00369,-0.00176
1790595246.1751165,-0.00443,0.00959,-1.0011,0.00528,0.00408,0.00081
1790595246.3776965,-0.00596,0.00866,-1.00185,0.00393,0.00487,0.00252
1790595246.3836854,-0.00212,0.02402,-1.00095,0.00911,-0.00166,-0.04333
1790595246.5608335,-0.01029,-0.0041,-1.00157,0.00477,0.0044,0.00703
1790595246.5716786,-0.01165,-0.00319,-1.00226,0.00535,0.00274,0.01134
1790595246.7676558,-0.00719,-0.00118,-1.00042,0.00856,0.00391,-0.00552
1790595246.7705827,-0.00629,0.00587,-1.00286,0.00424,0.00385,-0.00343
1790595247.0025284,-0.00618,0.00493,-1.001,0.00299,0.00784,0.00236
1790595247.1996632,-0.00347,0.00816,-0.99885,0.00793,0.00114,-0.00039
1790595247.215372,0.01007,0.01916,-1.00193,0.00646,0.00277,-0.00416
1790595247.3926322,-0.00394,0.02069,-1.0018,0.00551,0.00313,-0.00283
1790595247.6129105,-0.01504,0.0247,-1.0007,0.00508,0.00157,-0.00395
1790595247.7679415,-0.00882,-0.00011,-1.00044,0.00784,0.00122,0.00357
1790595247.7719455,-0.00394,0.00682,-1.00326,0.00421,0.00683,0.00438
1790595248.0076072,-0.00852,-0.00104,-1.00242,0.00173,0.00533,0.01056
1790595248.2225933,-0.00778,0.00071,-1.00094,0.00467,0.0033,0.01261
1790595248.427713,-0.00654,0.00617,-1.00033,0.00523,0.00533,0.01014
1790595248.637806,-0.00097,0.01498,-1.00386,0.00255,0.00312,-0.00514
1790595248.767794,-0.00326,0.01762,-1.00219,0.00457,0.00207,-0.00629
1790595248.8427982,-0.002,0.01789,-1.00189,0.0022,0.00312,-0.00881
1790595249.042706,-0.00467,0.0143,-1.0004,0.00259,0.00206,-0.0074
1790595249.048698,0.00075,0.02623,-1.00146,0.00516,0.00409,-0.03972
1790595249.2176836,-0.00079,0.01914,-1.00091,0.00697,0.00329,-0.01888
1790595249.4478812,-0.0058,0.02178,-1.00277,0.00367,-0.00154,-0.01788
1790595249.6524892,-0.00182,0.01314,-1.00072,0.00125,0.00411,-0.01439
1790595249.667661,-0.0037,0.0179,-1.00049,0.00358,0.00305,-0.01713
1790595249.7777941,-0.00131,0.02243,-1.00035,0.0044,0.00723,-0.02331
1790595249.85829,-0.01418,0.02807,-1.00413,0.00053,-0.00906,-0.01919
1790595249.9077175,0.0036,0.00363,-1.0026,0.01044,0.0022,-0.00691
1790595250.057468,-0.01065,0.00077,-0.99988,0.00549,0.00309,0.01449
1790595250.267661,-0.0117,-0.00695,-1.00209,0.00662,0.00265,0.02155
1790595250.4735618,-0.00976,-0.00513,-0.99985,0.00527,0.00348,0.02353
1790595250.5338688,-0.0067,0.0037,-1.00009,0.00461,0.00768,0.01182
1790595250.682546,-0.00531,0.00933,-1.00155,0.00466,0.00313,0.00972
1790595250.778315,-0.00266,0.03471,-1.00152,0.00489,-0.00555,-0.04049
1790595250.885085,0.00135,0.01563,-1.00088,0.00638,0.00047,-0.01398
1790595250.9677446,-0.00033,0.02138,-1.00055,0.00588,0.00232,-0.02164
1790595251.0912309,0.19204,0.00395,-1.00096,0.01849,0.02948,-0.05676
1790595251.153983,0.19244,-0.01171,-1.0143,-0.01435,-0.01772,0.05399
1790595251.2928376,0.01529,0.01277,-1.00235,0.01008,-0.02243,-0.04793
1790595251.358235,-0.13089,-0.02165,-1.02617,-0.0301,-0.02383,0.01415
1790595251.455453,-0.09895,-0.02685,-1.01089,-0.00819,0.00432,0.02713
1790595251.7022512,0.02094,-0.00848,-1.02055,-0.0004,-0.01697,0.08108
1790595251.7094297,0.05837,0.02,-0.98283,-0.00461,0.00638,0.03952
1790595251.7674954,0.01661,0.05605,-0.99653,0.00298,0.0424,-0.04004
1790595251.8660467,-0.07568,-0.04002,-1.01113,0.01263,0.00827,0.05434
1790595252.112437,0.02528,-0.03292,-0.99845,0.01805,0.03368,-0.02926
1790595252.3176959,-0.02606,0.02273,-0.99262,-0.0141,-0.00758,-0.01936
1790595252.3888495,-0.0175,0.01454,-0.99959,-0.12449,0.11665,0.01485
1790595252.5181942,-0.01384,0.0934,-1.02486,0.03,-0.03683,-0.0673
1790595252.589386,0.0106,0.00271,-1.01973,0.01857,-0.02309,-0.00173
1790595252.7176714,-0.00537,-0.0203,-1.01384,-0.01258,-0.0375,0.06124
1790595252.7934308,-0.02611,-0.02872,-1.01243,-0.00695,0.00985,0.06769
1790595252.928237,-0.09472,0.00996,-0.98812,-0.01452,-0.0263,0.00771
1790595252.9978344,-0.1478,-0.01888,-1.01708,-0.02403,-0.00534,0.03052
1790595253.0908546,-0.05659,0.00313,-1.00146,0.00306,0.00966,0.00033
1790595253.3427184,-0.04226,0.01284,-1.00002,0.00232,0.00811,0.00767
1790595253.5433197,-0.01924,0.00669,-1.00156,0.00178,0.00586,0.00156
1790595253.7529724,-0.00605,0.00833,-1.00205,0.00564,0.00155,0.00277
1790595253.7529724,-0.00323,0.01171,-1.00191,0.00506,0.00277,-0.0002
1790595253.9525554,-0.00684,0.01165,-1.00177,0.00308,0.00531,0.00216
1790595254.15779,-0.00635,0.0121,-1.00174,0.00629,0.00345,0.0006
1790595254.1630952,-0.00491,0.0096,-0.9986,0.00254,0.00415,-0.00037
1790595254.2941325,-0.00391,0.0173,-1.00164,0.00542,0.00681,-0.00289
1790595254.372879,-0.00603,0.00838,-1.00127,0.00253,0.00219,-0.00079
1790595254.5700197,-0.00684,0.00983,-1.0022,0.00446,0.00419,-0.00085
1790595254.737639,-0.00587,0.01138,-1.00102,0.00171,0.00203,-0.00099
1790595254.7436864,-0.0049,0.01081,-1.00042,0.00502,0.00231,0.00045
1790595254.9797385,-0.00715,0.01063,-1.00132,0.00244,0.00506,-0.00243
1790595255.188263,-0.00699,0.00664,-1.00043,0.00413,0.00144,0.00386
1790595255.1957939,-0.00472,0.01175,-0.99993,0.00511,0.00473,-0.00092
1790595255.3924835,-0.00461,0.00885,-1.00233,0.00486,0.002,0.00113
1790595255.3924835,-0.00034,0.02888,-1.00106,0.00598,0.00099,-0.0215
1790595255.5674963,-0.00409,0.01311,-1.00214,0.00345,0.00275,-0.00346
1790595255.7979505,-0.00998,0.01885,-1.0029,0.00341,-0.00078,0.00055
1790595256.0075817,-0.00635,0.01011,-1.00068,0.00452,0.00061,0.00275
1790595256.2075274,5e-05,0.01644,-1.00311,0.00127,-0.00358,0.00567
1790595256.393384,-0.00825,0.00754,-0.99922,0.00549,0.00538,0.0053
1790595256.54275,-0.00175,-0.00525,-1.00001,0.00273,0.00811,0.03639
1790595256.6076171,-0.01477,0.01855,-1.00233,0.00323,0.00454,-0.00329
1790595256.833808,-0.00906,0.00253,-1.00145,0.00674,0.00629,0.01048
1790595256.8377593,-0.00389,0.01528,-1.00088,0.00547,0.00253,-0.00213
1790595257.0278518,-0.00522,0.00773,-0.99939,0.00529,0.00052,0.00317
1790595257.0375414,-0.00484,0.01078,-0.99938,0.0074,0.00548,0.00126
1790595257.228349,-0.00425,0.0112,-1.00313,0.00542,0.00384,0.00133
1790595257.439296,-0.00586,0.01091,-1.00183,0.00491,0.00323,0.00506
1790595257.6425889,-0.00584,0.01347,-1.00109,0.00638,0.00425,-0.00154
1790595257.6477745,-0.00558,0.01197,-1.00233,0.002,0.00547,0.00131
1790595257.8208196,-0.00606,0.00982,-1.00199,0.00611,0.00443,0.0007
1790595258.0489478,-0.00545,0.01231,-1.00142,0.00171,0.00301,0.00063
1790595258.0527413,-0.00144,0.01809,-1.00137,0.00845,0.00523,-0.03053
1790595258.0527413,-0.00504,-0.00538,-1.00188,0.00213,0.00071,-0.00565
1790595258.2476368,-0.00597,0.02125,-1.00127,0.00372,0.00456,-0.01096
1790595258.2476368,-0.00773,0.00819,-1.00192,0.00607,0.00034,0.01031
1790595258.467601,-0.0073,0.00642,-1.00041,0.00456,0.00536,0.01384
1790595258.6679404,-0.00653,0.00506,-1.0021,0.00626,0.00387,0.00561
1790595258.6779783,-0.00556,0.01344,-1.00257,0.00633,0.00121,-0.00099
1790595258.8277345,-0.00573,0.01043,-1.00103,0.00599,0.00369,0.00136
1790595258.877664,0.00569,0.00056,-1.00197,0.01161,0.00598,-0.00838
1790595258.9576843,0.00249,0.01002,-1.00172,0.00405,0.00081,-0.01127
1790595259.0776181,-0.01067,0.00242,-1.00099,0.00693,0.0026,0.01219
1790595259.1677656,-0.00973,0.00539,-1.00199,0.00533,0.00304,0.0102
1790595259.2775736,-0.0041,0.01291,-1.00158,0.00532,0.00651,0.00057
1790595259.4877877,-0.0039,0.01477,-1.00285,0.00432,0.00397,-0.00339
1790595259.4983382,-0.00458,0.01531,-1.001,0.00589,0.00408,-0.0048
1790595259.5764987,-0.00705,0.01003,-1.00232,0.00555,0.00237,0.00061
1790595259.6875844,-0.00322,0.0289,-1.00238,0.00612,-0.00258,-0.03729
1790595259.798995,-0.00566,0.00293,-1.00154,0.00886,0.00051,0.00919
1790595259.8975286,-0.00711,0.01007,-1.0024,0.00133,0.00726,0.00244
1790595260.0976577,0.07587,0.00439,-1.00047,0.00678,0.01804,0.00029
1790595260.1182084,0.21415,0.01391,-1.02075,0.05326,-0.01679,-0.06334
1790595260.18758,0.1192,-0.01622,-1.00815,-0.01422,-0.00951,-0.00137
1790595260.2707317,-0.0615,0.03185,-1.03322,0.01816,-0.03217,-0.01017
1790595260.507616,-0.12599,-0.0125,-0.97899,0.00234,-0.01552,0.06011
1790595260.583154,0.07757,0.02313,-0.99248,0.0194,0.0203,-0.01346
1790595260.7282178,0.03922,-0.00158,-0.99027,0.00673,0.00778,0.05725
1790595260.8547385,-0.08502,-0.04135,-1.02677,0.02618,-0.03032,0.04572
1790595260.928926,-0.0614,0.00634,-1.00635,0.01287,0.01942,-0.03292
1790595260.9975817,-0.00561,0.01311,-0.98445,-0.00187,0.01541,-0.00364
1790595261.0976837,0.02155,0.00835,-1.01586,0.03823,-0.02625,-0.01828
1790595261.3321738,-0.03214,-0.00965,-0.9871,-0.00156,0.03329,0.03607
1790595261.402637,-0.01597,0.00212,-1.04433,-0.04468,-0.00188,0.0153
1790595261.4977942,0.00798,0.02185,-1.01188,-0.02122,-0.0068,-0.02164
1790595261.6477711,-0.00395,-0.00277,-1.0114,0.00641,0.0173,0.00961
1790595261.7080047,-0.08947,-0.0151,-0.99004,0.00287,0.00698,0.01975
1790595261.867754,-0.14601,-0.03565,-1.0155,-0.01769,0.02068,0.073
1790595261.9376664,-0.02702,-0.00458,-1.00129,0.01316,0.01306,-0.01109
1790595262.148798,-0.02533,-0.00754,-1.00026,0.00859,-0.00067,0.03015
1790595262.3574955,-0.05299,0.0264,-0.99959,0.01523,0.00136,-0.03237
1790595262.5631282,-0.02898,0.00538,-1.002,0.00395,0.00313,0.00413
1790595262.727976,-0.00912,0.01162,-1.00052,0.00526,0.00712,0.00032
1790595262.8717353,-0.0064,0.01008,-1.00159,0.00519,0.00576,-0.00018
1790595262.9679224,-0.00653,0.01005,-1.00393,0.00117,0.00337,0.0024
1790595263.1588478,-0.00754,0.01142,-1.00127,0.00325,0.00524,0.00059
1790595263.3676805,-0.00901,0.00126,-1.00265,0.00662,0.00809,0.02731
1790595263.4776196,-0.00929,0.00858,-1.00075,0.00822,0.00316,0.00521
1790595263.5782845,-0.00605,0.00883,-1.00203,0.00488,0.00292,0.00088
1790595263.753572,-0.0075,0.01237,-1.00129,0.0055,0.00277,-0.00171
1790595263.757434,-0.00863,0.00926,-0.99915,0.00509,0.00319,0.00046
1790595263.8777068,-0.00192,0.00049,-1.00098,0.00281,0.00025,0.00791
1790595264.1973772,-0.01384,0.01463,-1.00034,0.00701,0.00339,-0.00217
1790595264.2010152,-0.00997,0.00966,-1.00183,0.00429,0.00335,0.00074
1790595264.397581,-0.00821,0.01136,-1.00074,0.00538,0.00357,0.00178
1790595264.4027164,-0.00193,0.01756,-1.00052,-0.00211,0.01078,0.00994
1790595264.5876505,-0.00108,0.0409,-1.0012,0.00169,0.00736,-0.01798
1790595264.5876505,-0.00479,0.02362,-1.00186,0.00715,0.00764,-0.00961
1790595264.8080285,-0.0057,0.00945,-0.99989,0.00818,0.00159,0.0051
1790595264.8879244,-0.00536,0.00854,-0.99961,0.00599,0.00217,-0.00361
1790595265.0137184,-0.00976,0.01288,-1.00056,0.00604,0.00403,0.00416
1790595265.2182555,-0.00558,-0.00186,-1.00031,0.00297,0.00658,0.03007
1790595265.4227505,-0.01369,-0.00683,-1.00194,0.00276,0.00475,0.02246
1790595265.627803,-0.01482,0.00716,-1.00369,0.00289,0.01007,-0.00805
1790595265.6777327,-0.00824,0.02317,-1.00123,0.00456,0.00446,-0.00463
1790595265.8325732,-0.00474,0.01341,-1.00124,0.00407,0.00405,-0.00366
1790595265.8984115,-0.00541,0.01797,-1.00166,0.00475,0.00266,-0.01034
1790595266.037979,-0.00732,0.01626,-1.00225,0.00501,0.00278,-0.00626
1790595266.2381592,-0.00725,0.01655,-1.00119,0.00551,0.00249,-0.00501
1790595266.4482784,-0.00838,0.01274,-1.00159,0.00196,0.00516,0.00546
1790595266.4482784,-0.01175,0.00766,-1.00188,0.0062,0.00018,0.0079
1790595266.6482904,-0.00891,0.00592,-1.00053,0.00616,0.00245,0.01093
1790595266.6482904,-0.00987,0.00678,-1.00089,0.00347,0.0043,0.01254
1790595266.8607097,-0.00933,0.00437,-1.00229,0.00584,0.00363,0.0101
1790595266.913054,-0.00778,0.00958,-1.00059,0.00563,0.00329,0.01001
1790595267.062816,-0.01005,0.00401,-1.00292,0.00426,0.00435,0.01237
1790595267.23748,-0.01145,0.00043,-1.0014,0.00502,-2e-05,0.04056
1790595267.474375,-0.00763,0.00536,-1.00178,0.00426,0.0019,0.01004
1790595267.677799,-0.0109,0.01018,-1.00308,0.00662,0.00201,0.00655
1790595267.683133,-0.00932,0.01216,-1.00181,0.00395,0.00268,0.00272
1790595267.8807418,-0.00611,0.01493,-1.00176,0.00544,0.00244,0.00287
1790595267.8878098,-0.00646,0.00964,-0.99934,0.00791,0.00529,0.02578
1790595267.9226553,0.00393,-0.00844,-0.99991,0.00696,0.00321,0.02077
1790595268.018327,-0.00257,0.01743,-1.00041,0.00528,0.00643,-0.00354
1790595268.2277582,-0.00483,0.02367,-1.00025,0.00672,0.00742,-0.01109
1790595268.2392564,-0.00568,0.0182,-1.00118,0.00595,0.00412,-0.00686
1790595268.3878407,-0.00518,0.01998,-1.00116,0.00506,0.00386,-0.01093
1790595268.458259,-0.01623,-0.02906,-1.00607,0.00873,-0.00712,0.77124
1790595268.5174792,-0.01111,-0.02059,-0.98729,0.03504,0.01693,0.58851
1790595268.672564,0.00679,0.04645,-1.0049,-0.00484,0.00934,0.68451
1790595268.7385466,0.02541,0.02519,-1.00752,-0.00684,-0.01746,0.73402
1790595268.915526,0.00677,0.01363,-1.00816,-0.00375,0.01005,0.69775
1790595268.9374807,-0.01212,0.04353,-1.0028,0.00964,-0.0049,0.78337
1790595269.06784,0.00824,0.00256,-0.9982,-0.00522,0.00126,0.80585
1790595269.1774044,-0.02723,-0.00423,-0.98436,0.03835,0.00496,0.74633
1790595269.2391458,0.00932,0.03549,-1.00489,-0.01717,-0.01492,0.76156
1790595269.4082959,0.00591,-0.00927,-1.00761,-0.01488,0.00575,0.80722
1790595269.4576945,-0.00934,0.02662,-1.00719,-0.00116,-0.01204,0.76727
1790595269.5876591,-0.00445,0.01644,-1.00386,-0.00387,-0.01376,0.80207
1790595269.6590214,-0.00668,0.01883,-0.98658,0.05956,-0.00663,0.78685
1790595269.7897158,-0.00278,-0.00695,-0.99787,0.01267,0.00428,0.80191
1790595269.89746,-0.00151,-0.01068,-0.99732,0.00505,-0.00049,0.74035
1790595269.9577725,0.02361,0.07498,-0.99887,-0.00599,-0.0172,0.67515
1790595270.0679035,0.00071,0.04401,-0.9994,0.01077,0.0055,0.37263
1790595270.1979654,0.00389,0.01095,-0.99546,0.01652,0.00371,0.49791
1790595270.2575824,-0.01335,-0.00728,-1.00467,0.01437,-0.00802,0.40824
1790595270.357965,0.01915,0.01307,-1.00086,0.00215,-0.00315,0.29588
1790595270.4981918,-0.0054,0.03524,-0.99869,0.00967,-0.00427,0.34708
1790595270.5586498,-0.02522,0.03134,-0.99864,0.00616,0.00011,0.17441
1790595270.692855,0.00252,0.01027,-0.99786,0.01525,0.01637,0.18935
1790595270.8179219,0.00376,-0.01813,-0.99964,0.01723,0.00512,0.21249
1790595270.8928354,-0.00066,0.00029,-1.00368,0.01135,0.01555,0.17392
1790595271.0177174,-0.00636,0.01657,-1.00291,0.00402,-0.00088,0.1838
1790595271.1577492,-0.02193,0.02773,-1.00013,0.00426,0.00144,0.18071
1790595271.3677914,0.01084,0.04917,-1.00133,0.00502,-0.00056,0.06578
1790595271.3677914,-0.00422,0.0049,-1.00132,0.00808,0.00827,0.02024
1790595271.4777954,-0.00514,0.00389,-1.00306,0.00773,0.0043,0.01102
1790595271.5683954,-0.00777,0.01202,-1.00087,0.0062,0.00456,0.00409
1790595271.7689776,-0.0003,0.0134,-1.00076,0.01002,0.00141,-0.02474
1790595271.777874,-0.00706,0.01173,-0.99944,0.00799,0.00346,0.00559
1790595271.947514,-0.0044,0.0124,-0.99884,0.00475,0.0061,0.0016
1790595271.947514,-0.00307,0.01777,-1.00087,0.00657,0.00478,-0.00527
1790595272.179431,-0.00224,0.02134,-1.00221,0.00588,0.00597,-0.01401
1790595272.2895,-0.00991,-0.0032,-1.00382,0.00816,-0.00103,0.03118
1790595272.3873897,-0.0089,0.00519,-1.00249,0.00253,0.00326,0.01295
1790595272.45259,-0.00709,0.00768,-1.00091,0.00552,0.00428,0.01154
1790595272.554087,-0.00578,0.01187,-1.0015,0.00606,0.00713,-0.00259
1790595272.797634,0.19603,0.019,-1.00085,0.02576,0.02798,0.0015
1790595272.797634,0.1933,0.00232,-1.01575,0.0167,-0.06595,-0.0062
1790595272.9483843,0.02486,-0.00215,-0.98778,0.00462,-0.02142,0.00421
1790595272.9530714,-0.11884,0.04163,-1.00255,-0.0114,0.03306,-0.0566
1790595273.0182304,-0.09748,0.00605,-1.00972,0.0137,0.00604,-0.01802
1790595273.1077564,0.02409,-0.00046,-1.01199,0.00759,0.01423,-0.0145
1790595273.4078248,-0.02057,0.01394,-1.00652,-0.0077,-0.00375,-0.02535
1790595273.4778776,-0.05164,0.02222,-0.95142,0.00718,0.01213,-0.03745
1790595273.6178076,-0.029,0.02345,-0.98683,0.01521,0.03433,-0.0214
1790595273.8213668,0.0285,0.0245,-1.01237,-0.00946,0.02006,-0.02923
1790595273.83811,-0.0441,0.02496,-1.00348,0.0319,-0.00627,-0.05728
1790595273.9678226,-0.00359,0.01723,-0.99489,-0.00121,0.02073,-0.04247
1790595274.0383315,0.01594,-0.00023,-0.9814,0.00965,0.01591,0.03591
1790595274.2278814,-0.0071,-0.00097,-0.99395,0.00652,-0.01408,0.01957
1790595274.297473,-0.00063,0.01805,-1.0079,0.00456,-0.01228,-0.00668
1790595274.4331038,-0.0387,0.0047,-1.02658,-0.03602,-0.00745,0.04037
1790595274.6376529,-0.0472,0.02972,-1.00423,0.0087,0.01489,0.00176
1790595274.6428468,0.00636,0.00569,-1.00172,-0.0007,0.00382,0.01676
1790595274.6577275,0.04521,0.0262,-0.99227,0.01793,0.00156,0.01227
1790595274.842771,-0.05373,0.01958,-0.98942,0.00182,-0.02368,-0.01388
1790595274.8575757,-0.21187,-0.00196,-1.00475,0.00032,0.00596,-0.00217
1790595274.9576201,-0.0492,0.04244,-1.00922,0.01647,0.01041,-0.11259
1790595275.047836,0.005,0.00687,-1.00315,-0.00184,0.00488,-0.00592
1790595275.2181056,0.0085,0.02128,-1.00026,0.00361,0.00685,-0.0058
1790595275.4614427,0.00164,0.0087,-1.00092,0.00791,0.0016,-0.0001
1790595275.4614427,-0.00624,0.00912,-1.00002,0.00598,0.00241,0.00538
1790595275.6385982,-0.00907,0.00372,-1.00095,0.00411,0.00129,0.00615
1790595275.868383,-0.007,0.0042,-1.00074,0.00676,-0.00036,0.01084
1790595275.877996,-0.0033,0.02126,-1.00309,0.00192,0.00023,-0.02107
1790595275.9678159,-0.00652,0.01625,-1.00263,0.00633,-0.00063,-0.00898
1790595276.2780097,-0.00282,0.01446,-1.00069,0.00522,0.00291,-0.01894
1790595276.2780097,-0.00476,0.00542,-1.00207,0.00624,0.00467,-0.00062
1790595276.449024,-0.00844,0.00276,-1.0011,0.00569,0.0056,0.01262
1790595276.6925857,0.00042,0.00426,-1.00225,0.00719,0.00266,0.00798
1790595276.6992257,-0.01029,0.01377,-1.00107,0.00418,0.00368,-0.00124
1790595276.8934836,-0.00335,0.01179,-1.00009,0.00107,0.00277,-0.00037
1790595276.8977306,-0.00372,0.01075,-1.00316,0.00403,0.00389,0.00521
1790595277.1025255,-0.00455,0.01127,-1.00108,0.00409,0.00267,0.00264
1790595277.282645,-0.0016,0.00929,-1.00062,0.00556,0.00119,0.01171
1790595277.297472,0.00068,0.02167,-0.99915,0.00639,0.00281,-0.01179
1790595277.507722,-0.00292,0.02151,-1.00196,0.00211,0.00106,-0.02288
1790595277.507722,-0.0026,0.03005,-0.99978,0.00705,0.00514,0.00176
1790595277.7127504,-0.00531,0.00446,-1.00001,0.00199,-0.00088,0.00385
1790595277.7177396,-0.00362,0.01606,-1.00072,0.00508,0.00225,0.0009
1790595277.920448,-0.00019,0.0033,-1.00038,0.00631,0.00405,0.01349
1790595278.0981784,8e-05,0.0281,-1.00079,0.00344,0.00058,-0.01633
1790595278.112754,-0.01094,-0.00314,-1.00015,0.00558,0.00407,0.01949
1790595278.3278947,-0.0046,0.00942,-1.00125,0.0097,0.00761,0.01525
1790595278.3306842,-0.01954,-0.00046,-1.00143,0.00605,0.00447,0.00367
1790595278.5328896,-0.00566,0.0165,-1.00181,0.00315,0.00093,-0.00244
1790595278.5419426,-0.00251,0.01347,-0.99959,0.00409,0.00264,0.00047
1790595278.7377307,-0.00442,0.01321,-1.0011,0.00402,0.00442,0.00182
1790595278.9476078,-0.00265,0.01238,-1.00202,0.00155,0.00496,0.00132
1790595278.9491568,-0.00432,0.01432,-1.00118,0.00469,0.00419,-0.00117
1790595279.1479557,-0.00622,0.01386,-1.0004,0.00601,0.00317,0.00268
1790595279.1577165,-0.00349,0.01177,-1.00178,0.00725,0.00152,0.00095
1790595279.350042,-0.00405,0.01675,-1.0013,0.0035,0.00307,0.00044
1790595279.5512435,-0.00553,0.01489,-1.00065,0.00523,0.00394,-0.00086
1790595279.558173,-0.00486,0.01074,-1.00138,0.00362,0.00214,0.00199
1790595279.7579765,-0.00177,0.01907,-1.00094,0.00091,0.00417,-0.01567
1790595279.76751,0.01206,0.05333,-1.00431,0.00068,0.00944,-0.04843
1790595279.9377759,-0.0028,0.00658,-1.00114,0.00726,0.00743,-0.00183
1790595279.9774802,-0.00503,0.00794,-1.0007,0.00753,0.00615,0.00972
1790595280.167597,-0.00724,0.02926,-1.00202,0.00485,0.00592,0.01411
1790595280.178496,-0.00627,0.01399,-1.00031,0.00231,-0.00066,-0.00574
1790595280.370007,-0.0057,0.01058,-1.00122,0.00486,0.00443,0.00508
1790595280.582915,-0.00783,0.00751,-1.00085,0.00615,0.00368,0.02523
1790595280.7178853,0.00799,0.0164,-1.00075,0.00484,0.003,-0.01627
1790595280.7977293,-0.01056,0.00824,-1.0005,0.00575,0.00221,0.00726
1790595280.9178333,-0.00707,0.00757,-1.00107,0.0037,0.0046,0.00628
1790595281.011597,-0.00169,0.01553,-1.00129,0.00494,0.00212,-0.00045
1790595281.1077719,0.01763,0.03904,-0.99602,0.00811,-0.01145,0.73724
1790595281.1847155,-0.00345,-0.01589,-0.99022,0.02798,0.02317,0.63231
1790595281.3524663,-0.00686,-0.00938,-1.00102,0.01854,-0.02089,0.72461
1790595281.400245,-0.00123,0.01905,-1.01491,-7e-05,0.00493,0.69996
1790595281.47754,-0.00832,0.01718,-1.00183,0.02757,-0.00181,0.76419
1790595281.637531,0.0048,-0.00251,-1.01162,-0.0135,0.01613,0.76552
1790595281.6985676,0.00484,0.00834,-0.98388,0.02607,0.00527,0.77081
1790595281.8581567,0.02803,0.05603,-0.99672,-0.01724,-0.00302,0.73343
1790595281.9135418,0.00201,-0.02377,-0.98752,0.0086,0.01294,0.85536
1790595281.9974837,-0.00672,-0.02501,-1.01116,0.00256,-0.01717,0.77743
1790595282.0980568,0.01409,0.04742,-1.02938,-0.02646,-0.00915,0.75587
1790595282.217577,0.00286,-0.00155,-0.99802,-0.00673,-0.00648,0.8291
1790595282.3376715,0.01016,0.00508,-0.99002,0.00383,0.00622,0.75339
1790595282.4477851,-0.01353,-0.02877,-0.98723,0.01562,0.01451,0.83836
1790595282.5189304,-0.00729,0.00667,-1.00696,-0.01672,-0.005,0.78335
1790595282.6376941,0.02468,0.05842,-1.02172,-0.00764,-0.00237,0.58466
1790595282.7478957,0.00603,0.01662,-1.00359,0.01203,-0.01542,0.64106
1790595282.8177378,0.00633,0.01296,-1.00244,0.00434,0.01211,0.65008
1790595282.988142,-0.01691,-0.02805,-1.00061,0.00646,-0.00064,0.53949
1790595283.0376716,0.02579,0.08546,-0.9945,0.00036,0.00881,0.35616
1790595283.107685,-0.00824,-0.0016,-1.00124,0.00497,-0.00736,0.38474
1790595283.2297425,-0.0173,-0.01051,-0.99606,0.01236,0.0067,0.16958
1790595283.4074278,-0.01182,0.00548,-1.00153,0.00725,0.00509,0.24627
1790595283.5398262,0.01056,0.03333,-0.99924,0.00376,-0.00058,0.19231
1790595283.65772,-0.00801,-0.0025,-1.00188,0.00458,0.00061,0.17637
1790595283.859123,-0.02066,-0.01212,-1.00377,0.0055,-0.00099,0.19003
1790595283.8680012,-0.01151,-0.00829,-1.00121,0.00758,0.00673,0.14261
1790595284.0193353,0.01123,0.00551,-1.00124,0.00483,0.00979,-0.01002
1790595284.0193353,0.00542,0.02456,-1.00138,0.00436,0.00379,-0.01804
1790595284.257774,0.00203,0.03054,-1.00035,0.00409,0.00631,-0.03539
1790595284.2676566,0.00552,0.02919,-0.9994,0.00809,0.00698,-0.01692
1790595284.471635,-0.00412,0.01743,-1.00109,0.00715,0.00457,-0.00655
1790595284.4778361,-0.00172,0.01453,-1.00152,0.0049,0.00314,0.00291
1790595284.6776066,-0.01041,0.02587,-1.00169,-0.00116,0.01137,-0.00039
1790595284.7895813,0.00212,0.02978,-1.00202,0.00389,0.00052,-0.03018
1790595284.8923144,-0.00577,0.01262,-1.0018,0.00803,0.00435,0.00049
1790595284.9574764,-0.00314,0.00556,-1.00053,0.00626,0.00522,0.01098
1790595285.093815,0.19781,-0.005,-1.00648,0.01236,0.00482,0.09187
1790595285.2925613,-0.00827,-0.02011,-0.98104,-0.00755,0.00281,0.02875
1790595285.3576112,-0.13726,-0.00509,-1.0383,-0.01932,-0.02739,-0.00723
1790595285.4977093,-0.06973,0.0154,-1.02275,0.01582,-0.00514,0.00379
1790595285.5631402,0.04648,-0.0001,-1.02649,0.00447,0.00218,0.03032
1790595285.6973152,0.05305,-0.00402,-1.02339,0.04763,-0.02362,-0.01284
1790595285.898165,-0.00857,0.02953,-0.96774,0.01403,0.01636,-0.02185
1790595285.973676,-0.0352,-0.01464,-1.02517,-0.01786,0.00898,-0.01195
1790595286.0977793,0.02681,-0.00801,-1.00482,-0.00295,0.01616,-0.02141
1790595286.3151727,0.02903,0.00032,-1.01097,0.01868,0.0147,-0.01116
1790595286.3176808,-0.02358,0.03118,-0.98613,0.03672,0.00047,-0.02281
1790595286.3809106,-0.01023,0.02798,-0.89972,-0.08967,0.08895,-0.03076
1790595286.5177903,-0.03162,-0.01857,-0.99461,0.01787,0.03189,0.0239
1790595286.7225966,-0.03396,0.02114,-1.004,0.00019,0.01228,0.00482
1790595286.7978048,-0.02297,-0.00751,-0.99489,0.01758,0.0509,0.01038
1790595286.9275792,-0.03154,0.01731,-1.00583,0.00195,0.00515,-0.00819
1790595287.0001829,-0.02359,0.01497,-1.00082,0.0261,0.00824,-0.00094
1790595287.1183522,-0.09689,0.00577,-1.00358,0.00249,-0.0088,0.01708
1790595287.3379583,-0.12777,-0.00209,-0.9994,0.00732,0.00274,-0.01034
1790595287.542099,-0.00998,0.00504,-1.00039,0.0035,0.00314,-0.00134
1790595287.61907,-0.0064,0.00557,-1.00152,0.00339,0.00458,0.00095
1790595287.7578819,-0.00806,0.00677,-1.00109,0.00468,0.00285,0.00178
1790595287.947702,-0.01253,0.00564,-1.00247,0.0066,0.00792,0.00236
1790595288.0330093,-0.00931,0.00621,-0.99985,0.00746,0.00378,-5e-05
1790595288.157732,-0.01096,0.00597,-0.99971,0.00643,0.00404,0.00252
1790595288.2879274,-0.01517,-0.0026,-1.00145,0.00361,0.00242,0.01865
1790595288.560641,-0.00807,0.01593,-0.99998,0.00816,0.0017,-0.00921
1790595288.563702,-0.01143,0.00434,-1.00003,0.00606,0.00645,-0.00326
1790595288.5794582,-0.01066,0.00151,-1.00229,0.00557,0.00404,0.00386
1790595288.7324905,-0.01051,0.00461,-1.0012,0.00451,0.00176,0.00117
1790595288.737487,-0.01101,0.00708,-1.00056,0.00748,0.00462,0.00258
1790595288.9778423,-0.00563,0.00296,-0.99888,0.00539,0.00549,0.01733
1790595289.0527987,-0.00949,0.00687,-1.00256,0.00633,0.00796,-0.00128
1790595289.1978095,-0.01009,0.00442,-1.00154,0.00503,0.00028,0.00246
1790595289.3874438,-0.01218,0.0038,-1.00076,0.00406,0.00253,0.00293
1790595289.398872,-0.00592,0.01928,-0.99955,0.00574,0.0024,-0.01906
1790595289.5678337,-0.01323,0.00257,-1.00353,0.00345,0.00064,0.00951
1790595289.7937303,-0.00716,-0.00328,-1.00222,0.00522,0.00437,0.002
1790595289.9922912,-0.01088,0.00788,-1.00206,0.00718,0.00376,0.00144
1790595289.997881,-0.0085,0.00476,-1.00058,0.00367,0.00359,0.0016
1790595290.057998,-0.01033,0.00819,-1.0001,0.00512,0.0025,0.00192
1790595290.1979337,0.01635,0.01814,-1.00042,0.00117,0.00238,0.00941
1790595290.3775506,-0.00224,0.0369,-0.99932,0.00412,0.00882,-0.03542
1790595290.3775506,-0.00221,0.02172,-1.00281,0.00359,0.00512,-0.02197
1790595290.6184075,-0.02246,-0.00511,-0.9999,0.00554,0.00342,0.01514
1790595290.8204288,-0.011,0.00972,-1.00155,0.00306,0.00508,0.00593
1790595291.022769,-0.00942,0.00925,-1.00218,0.00484,0.00442,-0.00239
1790595291.0350356,-0.01083,0.00572,-1.00037,0.0061,0.00326,-0.0011
1790595291.233113,-0.01057,0.00553,-1.00313,0.00518,0.00335,0.00199
1790595291.4357362,-0.01023,0.00668,-1.00128,0.00757,0.0022,0.00178
1790595291.4377897,-0.01007,0.00506,-1.002,0.0066,0.00423,0.00125
1790595291.63765,-0.01043,0.00447,-1.00343,0.00395,0.00634,0.00327
1790595291.8429763,-0.01034,0.00535,-1.00176,0.0048,0.00542,-0.00033
1790595291.8429763,-0.01079,0.00682,-1.00177,0.00332,0.00463,-0.0014
1790595291.8477948,-0.00947,0.00695,-1.00291,0.00591,0.00325,0.00185
1790595292.0483766,-0.01055,0.00705,-1.00156,0.00509,0.00435,0.00138
1790595292.0584023,-0.00526,0.01075,-1.0038,0.00235,0.0056,-0.01661
1790595292.2375085,-0.00906,0.02592,-1.00163,0.00498,0.00085,-0.01336
1790595292.4576204,-0.00753,0.01505,-1.00108,0.00523,0.00365,-0.015
1790595292.4677067,-0.00838,0.01394,-1.00199,0.00707,0.00944,-0.00208
1790595292.66104,-0.01092,0.01225,-1.00254,0.00645,0.00299,-0.0082
1790595292.6787045,-0.01104,0.00694,-1.00262,0.00441,0.00571,-0.00323
1790595292.8675985,0.00601,0.0126,-0.99825,0.00803,0.00587,0.01387
1790595293.0029461,-0.00741,0.00821,-1.00193,0.00399,0.00564,-0.01266
1790595293.0723276,-0.00919,0.02409,-1.00169,0.00598,0.00235,-0.01561
1790595293.2080746,-0.00919,0.00869,-1.00178,0.00124,0.00703,-0.01419
1790595293.2782857,-0.0079,0.0147,-0.99987,0.00398,0.00396,-0.01097
1790595293.397722,-0.0594,-0.10232,-1.01659,-0.00965,0.00852,-0.67882
1790595293.4575427,0.01392,0.00352,-1.00058,-0.01226,0.01805,-0.71751
1790595293.5788395,0.00647,0.00477,-1.00452,0.0097,0.00078,-0.72817
1790595293.732194,-0.0092,0.01703,-1.00351,0.0006,0.00693,-0.77326
1790595293.790363,-0.00428,-0.00791,-0.99342,0.02275,0.01089,-0.76043
1790595293.8527958,-0.01487,0.02615,-0.99859,-0.01132,0.00715,-0.79064
1790595293.9574745,0.01063,0.01312,-0.99858,0.0214,0.00635,-0.79643
1790595294.0786688,0.01956,0.01642,-1.01402,0.0013,-0.00158,-0.8398
1790595294.1975622,-0.00178,0.00778,-1.00267,0.0037,0.02014,-0.74522
1790595294.297474,-0.01626,-0.03591,-0.99858,0.00854,0.00293,-0.7383
1790595294.4119425,-0.01831,0.02531,-0.99156,-0.01947,0.02874,-0.82592
1790595294.4777405,0.02704,0.03686,-0.99243,0.017,0.01377,-0.77372
1790595294.5980787,0.00153,0.02173,-0.99876,0.00151,0.00828,-0.80639
1790595294.7180219,0.00538,0.00115,-1.00603,0.01651,0.00683,-0.84222
1790595294.7778397,-0.00558,-0.02215,-1.01617,0.0016,-0.00877,-0.75054
1790595294.9079611,0.01263,0.045,-1.00128,0.03257,0.01126,-0.65234
1790595294.9781456,-0.00742,-0.03963,-0.99467,0.01193,0.02886,-0.61575
1790595295.0979836,-0.05818,-0.09202,-1.00149,-0.01099,0.0081,-0.41835
1790595295.2275717,-0.03231,-0.03703,-1.00922,0.00187,-0.00837,-0.47522
1790595295.3382726,-0.00325,-0.04035,-1.00117,-0.00014,0.00851,-0.2683
1790595295.4076812,0.00242,-0.01321,-0.99864,0.01125,-0.00131,-0.33629
1790595295.5426912,-0.01552,-0.00975,-1.00602,0.00535,-0.0016,-0.11815
1790595295.652746,-0.02937,-0.0098,-0.99925,0.00466,0.00277,-0.25159
1790595295.7174788,-0.00102,0.01366,-1.00169,0.00139,0.01007,-0.21938
1790595295.8828113,0.01734,0.0108,-1.00306,0.00338,0.00672,-0.16805
1790595295.9474995,-0.00101,0.00622,-1.00171,0.00118,0.00246,-0.19493
1790595296.11843,-0.03141,0.00979,-1.00212,0.00283,0.00542,-0.16085
1790595296.3615978,0.00197,0.00109,-1.00309,0.00762,0.00625,0.01621
1790595296.365544,0.00712,0.01003,-1.00096,0.00595,0.00382,0.00091
1790595296.5479796,0.00129,0.0222,-1.00112,0.0021,0.00542,-0.00707
1790595296.5577881,-0.00471,0.02039,-1.00045,0.00373,0.00188,-0.01855
1790595296.7588284,0.00185,0.01953,-1.00181,0.00397,0.00164,-0.01509
1790595296.7729735,-8e-05,0.01796,-1.00149,0.00599,0.00585,-0.01765
1790595296.960055,0.00061,0.01902,-0.99987,0.0076,0.00304,-0.01985
1790595296.977644,-0.01424,-0.01338,-1.00218,0.00655,0.00919,0.02095
1790595297.0713785,-0.00532,-0.00224,-1.00332,0.00272,0.0019,0.00636
1790595297.1689565,-0.00127,0.01552,-1.00174,0.00437,0.00312,0.0019
1790595297.3697386,0.12818,0.00597,-1.00207,-0.02188,0.02645,0.00215
1790595297.376817,0.20298,0.01805,-1.00506,0.00126,-0.02574,-0.07723
1790595297.4462743,0.07925,-0.00856,-0.99045,0.01031,-0.03403,-0.00867
1790595297.587929,-0.08588,0.03241,-0.99416,0.032,-0.02736,-0.02864
1790595297.6779342,-0.10985,0.01154,-1.00122,0.01971,-0.00463,0.02085
1790595297.787822,-0.00237,-0.01055,-1.01271,-0.00757,0.04992,0.02427
1790595297.8525338,0.05723,0.00222,-1.00266,0.00483,0.03978,0.04739
1790595297.9985292,0.00904,0.01351,-1.02134,0.02453,-0.01216,0.02036
1790595298.0578015,-0.07561,-0.02424,-1.00469,-0.02391,0.00976,0.04151
1790595298.1878629,-0.04642,0.01824,-0.97514,0.00308,0.02401,-0.01627
1790595298.2581882,0.01883,0.01343,-0.98629,-0.00357,0.04147,0.0073
1790595298.3974404,0.04019,0.0166,-0.98889,0.01829,0.0281,-0.02851
1790595298.5977137,-0.00575,0.01997,-1.01165,0.0149,0.01337,0.00421
1790595298.618467,-0.0654,-0.00243,-0.99694,-0.05676,0.07833,0.14312
1790595298.692795,-0.02225,-0.06904,-1.01165,0.00312,-0.00215,0.02034
1790595298.807437,0.01666,0.00796,-0.99646,-0.00776,-0.0358,0.01453
1790595298.8783238,0.01711,0.00744,-0.98464,0.00604,-0.01727,0.00834
1790595299.007779,-0.0221,0.00432,-0.9723,-0.00099,0.00837,-0.00024
1790595299.0777543,-0.02798,0.02803,-1.00024,0.01922,-0.00013,-0.05392
1790595299.208289,-0.08915,0.02469,-0.98719,0.01121,0.01474,0.02311
1790595299.418572,-0.05765,0.00301,-0.99876,0.01277,0.00428,0.00185
1790595299.4976752,0.07056,0.00724,-1.00042,0.00242,0.00515,-0.00035
1790595299.6181931,0.05914,0.0223,-1.00593,-0.02618,-0.02273,-0.01709
1790595299.829908,-0.07433,0.06115,-1.03599,-0.02726,-0.00103,-0.0327
1790595299.832829,-0.0236,0.01711,-1.00197,-0.00478,0.0022,-0.01863
1790595299.9976313,-0.02109,0.01223,-1.00101,0.00614,0.00375,-0.00402
1790595299.9976313,-0.00788,0.0025,-1.00032,0.00449,0.00884,0.00101
1790595300.1291664,-0.00069,0.00437,-1.00117,0.00499,0.00305,0.00256
1790595300.2376907,0.00323,0.00524,-1.00057,0.00534,0.0042,-0.00209
1790595300.432792,-0.00089,0.00465,-1.00125,0.00211,0.00313,0.00153
1790595300.4383612,-0.00473,0.00482,-1.00113,0.00458,0.00435,0.00446
1790595300.6477063,-0.00577,0.00458,-1.00163,0.00668,0.00422,0.00089
1790595300.658367,-0.00928,0.01545,-1.0029,0.00574,0.00368,-0.04045
1790595300.7678988,-0.00029,0.00614,-0.99935,0.00535,0.00363,0.00114
1790595300.857963,-0.00198,-0.00148,-1.00046,0.00445,0.00632,0.00694
1790595301.0175457,-0.00365,0.00672,-1.00024,0.00625,0.00265,0.0113
1790595301.1283753,-0.00242,0.00454,-1.00077,0.00495,0.00756,0.0001
1790595301.2794602,-0.00811,0.01368,-1.00097,0.00715,0.00419,-0.00829
1790595301.4679165,-0.00479,0.00188,-1.00239,0.0082,0.00561,0.00253
1790595301.4778495,-0.00064,0.00553,-1.00131,0.00099,0.00416,-0.00029
1790595301.6750574,-0.00229,0.00433,-1.00189,0.0071,0.00376,0.00308
1790595301.677519,-0.00685,0.00472,-1.00248,0.00539,0.00305,0.00229
1790595301.8478055,0.00186,0.02593,-1.00307,0.00668,0.00432,-0.02857
1790595301.8478055,-0.00243,0.00437,-1.00134,0.00413,0.0039,0.00225
1790595302.0828004,-0.01099,0.00462,-1.00205,0.00202,0.0017,0.00716
1790595302.2877402,-0.00428,0.00654,-1.00206,0.00673,0.00241,-0.00145
1790595302.487637,-0.00297,0.00359,-1.00078,0.00457,0.00219,0.00032
1790595302.6578765,-0.01307,-0.00323,-1.00044,0.0077,0.0017,0.01064
1790595302.6676235,-0.00261,-0.00111,-1.00211,0.005,0.00419,0.00906
1790595302.9038043,0.01058,0.01509,-1.00096,0.00212,0.00015,-0.00068
1790595303.1082625,0.00049,0.00613,-1.00112,0.00396,0.00427,0.00401
1790595303.157845,-0.00594,0.00279,-1.0003,0.00547,0.00378,0.00694
1790595303.3131711,-0.00646,0.0008,-1.00123,0.00629,0.00228,0.0101
1790595303.517761,-0.00419,0.00192,-0.99998,0.00102,0.00479,0.007
1790595303.517761,-0.00225,0.00421,-1.0008,0.004,0.00107,0.00516
1790595303.7227638,-0.00196,0.00699,-0.99938,0.00482,0.00473,-0.0009
1790595303.9278448,-0.00038,0.01049,-1.00118,0.00187,0.00219,-0.01239
1790595303.9278448,0.00162,0.01209,-1.00142,0.00503,0.00243,-0.01105
1790595304.1331015,-0.00234,0.00898,-1.00353,0.00499,0.00337,-0.00223
1790595304.1377573,-0.0035,0.00581,-1.00171,0.0042,0.00573,0.00669
1790595304.3356514,-0.00588,0.0014,-1.00222,0.00543,0.00628,0.01321
1790595304.5126302,-0.006,0.00362,-1.00029,0.00623,0.00749,0.01526
1790595304.6474175,-0.00378,-0.00117,-1.00303,0.00186,0.00409,0.01065
1790595304.7381787,-0.00447,0.00233,-1.00227,0.00699,0.00722,0.00388
1790595304.9479756,-0.0043,-0.00267,-1.00151,0.00643,0.00639,0.00761
1790595304.9526222,-0.00364,0.00271,-1.00079,0.00662,0.00329,0.0062
1790595305.152815,-0.00377,0.002,-1.00086,0.00688,0.00477,0.00669
1790595305.1575456,-0.01457,0.01166,-1.00337,0.00266,-0.00258,-0.00587
1790595305.2878747,0.00723,0.00585,-1.00252,0.00431,0.00794,0.00247
1790595305.297431,-0.0074,0.00742,-1.00129,0.006,0.00545,0.00642
1790595305.4876964,-0.00566,0.00022,-1.00341,0.00254,0.00442,0.00637
1790595305.4975932,-0.00447,0.0053,-1.00138,0.00418,0.00035,0.00649
1790595305.7676504,-0.00163,0.00367,-1.00174,0.00369,0.00479,0.00117
1790595305.7676504,-0.00205,0.00603,-1.00156,0.00571,0.002,0.00177
1790595305.8982794,-0.00545,0.00458,-1.00101,0.00424,0.00671,0.00441
1790595305.9728658,-0.00535,0.00093,-1.00263,0.00471,0.00288,0.00868
1790595306.1878963,-0.00721,-0.00372,-1.00301,0.00623,0.00115,0.02761
1790595306.1878963,-0.00943,-0.00337,-0.99966,0.00547,-0.0005,0.01638
1790595306.1980612,-0.00131,0.0055,-1.00173,0.00759,0.00412,-0.00018
1790595306.317666,-0.00278,0.01178,-1.00083,0.00308,0.0005,-0.00355
1790595306.3982577,-0.00152,0.00583,-1.00026,0.00521,0.00425,0.00056
1790595306.5926356,-0.00495,0.00344,-1.00138,0.00335,0.00455,0.00462
1790595306.5985005,0.20418,0.00871,-0.98452,0.0285,0.05015,-0.0354
1790595306.7946565,0.18658,-0.00031,-0.98555,0.00014,-0.00973,-0.06811
1790595306.8578799,0.01002,0.00711,-1.01405,0.00272,-0.00065,-0.0057
1790595306.9984233,-0.12828,-0.01268,-1.00288,-0.00737,0.00165,0.00214
1790595307.1811268,-0.07524,0.00695,-0.99321,-0.01346,0.04178,-0.00098
1790595307.248123,0.06307,-0.00886,-1.00012,0.02151,-0.02032,-0.00156
1790595307.408204,-0.05566,0.00159,-1.01364,-0.01558,0.01379,0.03145
1790595307.6129014,-0.02994,0.00824,-1.00926,-0.00185,-0.0246,0.00896
1790595307.6177578,0.03152,-0.00386,-1.00363,-0.0159,-0.0187,0.01028
1790595307.8177693,-0.01207,-0.00033,-0.99402,0.0197,0.00741,-0.02272
1790595308.020031,-0.02895,0.00627,-1.00855,0.01606,0.00456,0.01649
1790595308.0378928,0.00705,0.01988,-1.00151,0.00587,-0.02904,0.01182
1790595308.1926842,0.0198,0.01568,-1.00158,0.01059,-0.03284,-0.00133
1790595308.2577343,-0.01129,-0.00399,-1.00584,-0.0132,-0.01786,0.00673
1790595308.347959,-0.1163,0.00019,-1.01054,0.0011,-0.00953,-0.01541
1790595308.6379035,-0.18747,-0.00368,-0.99623,0.01123,0.00455,0.008
1790595308.6379035,-0.0367,-0.00394,-1.00522,0.00329,0.00449,0.00298
1790595308.840524,0.10518,0.01038,-1.00192,0.00928,0.00675,-0.0031
1790595308.840524,0.0706,0.02927,-0.99222,0.00961,-0.00223,-0.01425
1790595308.8581636,-0.06303,0.00759,-0.99393,0.02333,-0.00608,-0.01421
1790595309.0375214,-0.07904,0.01567,-0.99237,0.00071,0.00116,0.00045
1790595309.0575323,-0.02573,0.00855,-0.99711,-0.00699,-0.00104,-0.01567
1790595309.2475128,-0.02176,0.00049,-1.00354,0.00638,0.00513,0.0037
1790595309.2877908,-0.00726,0.00629,-1.00025,0.00457,0.0028,0.00132
1790595309.4124959,-0.00789,0.00402,-1.0002,0.00457,0.0029,0.00185
1790595309.6578794,-0.01003,0.00257,-1.0029,0.00553,0.00231,0.00233
1790595309.6578794,-0.00933,0.00566,-1.00183,0.01031,0.00317,-4e-05
1790595309.6777015,-0.00998,0.00276,-0.99908,0.00735,0.00724,-0.0008
1790595309.840149,0.00296,0.00222,-1.00081,0.00569,0.00896,-0.00306
1790595309.9339857,0.00604,0.00502,-1.00177,0.00391,0.0025,0.00058
1790595309.9778895,-0.00222,-0.00704,-1.00158,0.00534,0.00236,0.00017
1790595310.0777144,-0.00217,0.00683,-1.00028,0.00458,0.00154,0.00046
1790595310.2181406,-0.00676,0.00047,-1.00244,0.00354,0.00332,0.00244
1790595310.2785633,-0.00461,0.00341,-1.00062,0.00461,0.00668,0.00036
1790595310.3778563,-0.00679,0.0015,-1.00106,0.00394,0.00312,0.00301
1790595310.479164,0.00824,0.01601,-1.0009,0.00367,0.00586,-0.02008
1790595310.6885734,-0.00746,0.00425,-1.00288,0.00346,0.00463,0.00186
1790595310.8887978,-0.00205,0.0021,-1.00189,0.00273,0.00198,-0.00261
1790595310.8887978,-0.00461,0.00378,-1.00196,0.00269,0.00364,0.0013
1790595311.058232,-0.00622,-0.00382,-1.00234,0.00042,0.00231,0.01767
1790595311.0909214,-0.00902,-0.04456,-1.00337,0.00065,0.00051,0.02165
1790595311.2189255,-0.0108,-0.00125,-1.0003,0.00989,0.00423,-0.00292
1790595311.297692,-0.00493,-0.00638,-1.00346,0.00077,0.00035,0.00015
1790595311.4975898,-0.00276,0.00733,-1.00007,0.00564,0.005,0.00132
1790595311.5176618,-0.00367,-0.00054,-1.00299,0.0042,0.00447,0.0021
1790595311.7079206,-0.00634,0.00409,-1.00078,0.00524,0.00621,0.00137
1790595311.7182279,0.011,0.01992,-1.00096,0.00346,0.00555,-0.01037
1790595311.8976262,-7e-05,0.01112,-1.00093,0.00236,0.00312,-0.01302
1790595312.1176555,-0.00912,-0.00529,-1.00303,0.00309,0.00348,0.02531
1790595312.2383306,-0.00512,0.00507,-1.00151,0.00768,0.00182,-0.00143
1790595312.3174548,-0.00349,0.00162,-0.99963,0.00638,0.00345,0.00116
1790595312.5284626,-0.00442,0.00144,-0.99985,0.00473,0.00118,0.00268
1790595312.538198,-0.00462,0.00357,-1.00131,0.0052,0.00584,-0.00014
1790595312.7302897,-0.00377,0.00447,-1.00148,0.0068,0.00312,-0.00047
1790595312.7377348,-0.00469,-0.00044,-1.00086,0.00428,0.00278,0.00372
1790595312.9399145,-0.00416,0.00278,-1.00238,0.00737,0.00361,0.00277
1790595313.142719,-0.0035,0.00393,-1.00129,0.00498,0.00362,0.00333
1790595313.1583102,-0.00425,0.00204,-1.00048,0.00616,0.00423,0.00249
1790595313.232911,-0.00609,0.00347,-1.00059,0.00479,0.00464,0.00022
1790595313.3478067,-0.00345,0.00313,-1.00079,0.0045,0.00327,0.00158
1790595313.5530002,-0.00134,0.01286,-1.00425,0.00216,0.00364,-0.02727
1790595313.7474382,-0.00488,-0.00596,-1.00247,0.00441,0.00323,0.00143
1790595313.9658754,-0.00807,0.02199,-1.0015,0.00375,0.00469,-0.00551
1790595313.9679136,-0.00549,0.00822,-1.00079,0.0059,0.00495,-0.00299
1790595314.170443,-0.0022,0.00548,-1.00065,0.0037,0.00418,0.00128
1790595314.2476146,-0.00435,-0.0014,-1.00191,0.00413,0.00326,0.01184
1790595314.3778331,0.01073,-0.00021,-1.00148,0.00224,0.00924,-0.00417
1790595314.5078707,0.00228,0.00662,-1.00042,0.00533,0.00347,-0.01716
1790595314.577549,-0.00988,-0.00557,-1.00075,0.00554,0.00244,0.01462
1790595314.718428,-0.00633,-0.00071,-1.00167,0.00585,0.0007,0.00595
1790595314.7897203,-0.00309,0.00722,-1.0003,0.00525,0.00506,0.00081
1790595314.8580632,0.0214,0.05214,-1.00147,0.00481,0.0114,0.68385
1790595314.9787276,-0.01014,-0.02352,-0.99374,0.04449,0.01199,0.68807
1790595315.0777686,0.01075,0.01633,-1.00292,0.00495,0.01264,0.70305
1790595315.2004719,-0.00636,-0.0068,-0.99446,0.00943,0.01616,0.76969
1790595315.2563725,-0.01331,-0.00971,-1.00063,0.01494,-0.00607,0.73743
1790595315.3576312,0.00951,0.04048,-1.012,-0.01922,0.01545,0.73329
1790595315.4777608,0.00218,-0.00684,-0.99785,0.00969,0.00326,0.73874
1790595315.6311166,-0.00966,-0.03134,-0.99326,0.00374,-0.01664,0.84767
1790595315.6975598,-0.00354,0.0066,-0.99472,0.01043,0.00623,0.75175
1790595315.7981098,-0.01844,0.00045,-0.99203,-0.0156,-0.00319,0.7914
1790595315.9136064,-0.00353,-0.01487,-1.00475,-0.00492,0.02694,0.83695
1790595315.9775424,0.006,-0.01948,-1.00145,0.01527,0.00307,0.72078
1790595316.093061,-0.00925,-0.02228,-1.00268,-0.00206,-0.00804,0.81659
1790595316.2128303,-0.01295,0.02078,-1.00717,0.03444,-0.01308,0.77948
1790595316.2776694,-0.00831,0.00157,-0.99576,0.01265,-0.00711,0.75785
1790595316.3776472,-0.02226,-0.02163,-0.99619,0.01108,0.00964,0.80977
1790595316.4978943,-0.01513,-0.05944,-0.99878,0.01169,-0.00042,0.59293
1790595316.5777256,-0.02104,0.04942,-0.99009,0.02656,-0.00702,0.58245
1790595316.697641,-0.02246,-0.04006,-1.00405,0.00409,-0.00518,0.39251
1790595316.8383822,-0.01556,0.01728,-1.00126,-0.00874,0.00696,0.48785
1790595316.897855,0.02224,0.09146,-1.01321,-0.00648,0.0036,0.27439
1790595317.0680904,0.01255,0.00154,-1.00244,0.0021,0.00125,0.28675
1790595317.128218,0.01542,0.02918,-1.00037,0.01004,-0.00077,0.11218
1790595317.1878145,-0.0436,-0.00265,-0.99931,-0.0001,0.00307,0.24449
1790595317.2977002,-0.05051,0.03281,-1.0014,-0.00032,0.0034,0.19656
1790595317.4279478,0.00342,0.00575,-0.99937,0.00935,0.00237,0.22454
1790595317.5527673,0.01147,-0.02253,-1.00341,0.01085,0.00438,0.13947
1790595317.6526976,0.01036,5e-05,-1.00086,0.0087,-0.00457,0.20978
1790595317.8494456,-0.02056,0.06061,-0.99835,0.00155,0.00521,0.00686
1790595317.8577354,-0.02548,0.01006,-1.0008,0.00635,0.00278,0.01387
1790595317.9576335,-0.01949,0.00484,-1.00129,0.00157,0.0027,0.01444
1790595318.0577846,-0.01444,0.00588,-0.99899,0.00433,0.00452,0.01577
1790595318.2627258,-0.0165,-0.00077,-1.00101,0.00495,-0.00017,0.00432
1790595318.2627258,-0.01221,0.01809,-1.00086,0.00421,0.00346,-0.0037
1790595318.4675784,-0.01436,0.01444,-0.99911,0.00226,0.00367,-0.00052
1790595318.672752,-0.00757,0.00914,-1.00347,0.00352,0.00382,-0.01382
1790595318.7878098,-0.01032,0.01527,-0.9995,0.00683,0.00174,-0.01283
1790595318.8737566,-0.01005,0.01935,-1.00012,0.00308,0.00278,-0.01828
1790595318.9433093,-0.00543,0.02367,-0.99938,0.00263,0.00468,-0.02549
1790595319.0773673,0.1915,0.02745,-1.0095,-0.01397,0.0163,0.0146
1790595319.2968378,0.16515,-0.01648,-1.00811,0.03754,-0.01056,-0.0084
1790595319.4881566,-0.13504,0.00248,-1.00645,0.02359,-0.00315,-0.01639
1790595319.492863,-0.0777,0.02162,-0.99323,0.0181,0.00993,-0.01458
1790595319.547902,0.04317,-0.01262,-1.01937,-0.01458,-0.00562,0.03445
1790595319.6877496,0.06874,0.00921,-0.99326,0.0035,-0.0167,-0.0064
1790595319.7527018,-0.04483,0.0151,-1.00739,0.01753,0.02436,-0.01879
1790595319.89803,-0.0753,0.00574,-0.99701,0.01321,0.06455,0.02692
1790595319.9680727,-0.04815,-0.01223,-1.01719,-0.0522,0.01465,0.02856
1790595320.0978525,-0.00062,-0.02333,-1.02422,-0.04876,0.00138,-0.00778
1790595320.1760774,0.01884,0.01112,-0.99128,0.00018,0.01127,-0.03917
1790595320.2881095,-0.02584,-0.0129,-0.98952,0.01316,0.02069,0.01628
1790595320.5076258,-0.04274,0.00506,-1.01283,0.00696,-0.01237,0.00078
1790595320.518234,-0.00703,0.01881,-1.00451,-0.00226,0.04083,-0.02879
1790595320.5879488,-0.01249,-0.02694,-1.03589,-0.01277,-0.00357,0.0008
1790595320.71856,-0.01063,0.00879,-1.01345,-0.02122,-0.03038,0.00324
1790595320.8179824,-0.1199,-0.02664,-0.99582,-0.00318,0.00815,0.00572
1790595320.9239337,-0.13322,-0.01032,-1.00134,0.00385,-0.00716,-0.01332
1790595320.9976575,-0.04771,0.00921,-0.99862,0.0133,0.01749,-0.00825
1790595321.1298475,-0.00613,0.0073,-1.00268,0.00937,0.01191,0.00586
1790595321.2077591,-0.00083,0.01484,-1.00041,0.00648,-0.00356,-0.00717
1790595321.303055,-0.00383,0.01237,-0.99581,0.00353,0.00757,0.00349
1790595321.5376549,-0.01778,0.02161,-1.00474,0.01523,-0.0038,-0.00712
1790595321.7375202,-0.00749,0.01127,-1.0001,0.01455,0.00841,-0.01868
1790595321.947509,-0.01805,0.00657,-1.00289,-0.00041,-0.00898,0.00251
1790595321.947509,-0.05159,0.01595,-1.0012,0.00732,0.00435,-0.02044
1790595322.1481853,-0.01875,0.00889,-1.00362,0.00168,0.00432,-0.00112
1790595322.2976348,-0.01349,0.00678,-1.00164,0.00706,0.00289,0.00383
1790595322.357752,-0.009,0.00759,-1.00191,0.00473,0.00142,0.00318
1790595322.5675232,-0.01078,0.00934,-1.00199,0.00584,0.00147,0.0028
1790595322.5775547,-0.01218,0.00766,-0.99985,0.00498,0.00281,0.00133
1790595322.7631865,-0.01208,0.0079,-1.00198,0.006,0.0038,-6e-05
1790595322.9745255,-0.0097,0.01252,-1.00253,0.00381,0.00634,-0.00655
1790595323.0925632,-0.01505,-0.00308,-0.99974,0.00816,0.00363,0.01482
1790595323.1777518,-0.01407,0.00826,-1.00197,0.00922,9e-05,0.01676
1790595323.3040671,-0.01476,0.00687,-1.00298,0.00202,0.00442,0.00693
1790595323.463523,-0.01155,0.00636,-1.00101,0.00323,0.00598,0.00569
1790595323.478056,-0.01159,0.01095,-1.0021,0.0062,0.00045,0.0017
1790595323.5885718,-0.00992,0.00559,-1.00213,0.0048,-0.00625,-0.00281
1790595323.789634,-0.01663,0.00917,-1.00203,0.00604,0.00431,0.00074
1790595323.7975981,-0.0122,0.01006,-1.0022,0.00199,0.00476,0.00059
1790595323.9983091,-0.01156,0.00688,-1.00105,0.00438,0.00568,0.00113
1790595323.9983091,-0.00983,0.00897,-1.00121,0.00553,0.00294,0.00117
1790595324.1776438,-0.01308,0.00233,-1.0021,0.0056,0.00489,-0.0092
1790595324.3177383,-0.01357,0.01188,-1.00239,0.00482,0.00745,-0.00225
1790595324.3980262,-0.00925,0.00572,-1.00056,0.0079,0.00697,0.00351
1790595324.6080997,-0.01051,0.01235,-1.00182,0.00712,0.00252,-0.00113
1790595324.6080997,-0.01114,0.00755,-1.00185,0.00637,0.00269,0.00113
1790595324.8145056,-0.01235,0.01318,-1.00303,0.00176,0.00355,-0.00148
1790595325.0080216,-0.01041,0.02552,-0.99916,0.00431,0.00161,-0.03317
1790595325.017586,-0.01118,0.01262,-1.00126,0.00652,0.00343,-0.00198
1790595325.2295399,-0.01175,0.00348,-0.99988,0.00736,0.00365,0.00582
1790595325.3177333,-0.01354,-0.00031,-1.00201,0.00323,0.00458,-0.00257
1790595325.4279377,-0.0101,0.01052,-1.00088,0.00484,0.00403,0.00478
1790595325.6352434,-0.012,0.00753,-1.00032,0.00651,0.0003,0.0023
1790595325.6352434,-0.01258,0.00953,-1.00104,0.00384,0.00547,0.00018
1790595325.8428726,-0.01168,0.00901,-1.00024,0.00311,0.00507,0.00123
1790595326.0428858,-0.01105,0.00613,-0.99957,0.00271,0.00409,-0.00162
1790595326.2488515,-0.01337,0.01019,-1.00182,0.00338,0.0057,0.0007
1790595326.322761,-0.01047,0.00742,-1.00168,0.00275,0.00372,-0.00158
1790595326.457449,-0.0121,0.009,-1.00142,0.0036,0.00444,-0.00154
1790595326.6619048,-0.01066,0.00847,-1.00225,0.00224,0.00373,-0.00073
1790595326.668068,-0.01032,0.01048,-1.00175,0.0021,0.00684,-0.00291
1790595326.8478622,-0.01235,-0.00493,-0.9995,0.00493,0.00525,0.0071
1790595327.0679178,-0.01129,0.00537,-1.00211,0.00639,0.00098,0.0038
1790595327.0717359,-0.01154,0.01076,-1.00077,0.007,0.00506,-0.00156
1790595327.2685199,-0.01045,0.01151,-0.99982,0.00443,0.0043,-0.00477
1790595327.337963,-0.01158,0.00832,-1.00156,0.00666,0.00788,-0.0015
1790595327.4792652,0.00935,0.03992,-1.002,0.01127,-0.00237,-0.03413
1790595327.617573,-0.00764,0.0094,-1.00185,0.00288,0.00236,-0.02568
1790595327.6350186,-0.01331,0.00911,-0.99949,0.00402,0.0015,0.00203
1790595327.8176758,-0.01336,-0.00125,-1.00049,0.00535,0.004,0.0093
1790595327.8781095,-0.01394,0.00814,-1.00083,0.00561,0.00469,0.00746
1790595328.0919259,-0.01137,0.00622,-1.00155,0.0057,0.00064,0.00847
1790595328.22389,-0.01401,0.00591,-1.00249,0.00611,0.00152,0.00758
1790595328.2374694,-0.01348,0.00338,-1.00315,0.0072,0.00199,0.00877
1790595328.337587,-0.00691,0.02754,-1.00118,0.0052,-0.00193,-0.03812
1790595328.5060046,-0.01118,0.00976,-1.00188,0.0085,0.00282,-0.00823
1790595328.577806,-0.01067,0.0109,-1.00147,0.00527,0.00321,-0.0028
1790595328.7077343,0.13126,0.01153,-1.00207,0.00048,0.0256,-0.00904
1790595328.7777686,0.2047,0.005,-0.97859,0.00789,-0.02074,0.04432
1790595328.9124818,0.05163,-0.00555,-0.99879,-0.0133,0.00185,-0.01147
1790595329.112628,-0.11663,-0.01549,-1.00118,0.0075,-0.01467,0.01032
1790595329.1177166,-0.11035,0.01835,-0.99385,-0.00675,0.01709,-0.01882
1790595329.3233876,0.01817,0.00289,-0.97931,0.01528,0.02353,0.00961
1790595329.3233876,0.07505,0.01623,-0.97767,0.00611,0.0022,0.0
1790595329.3581867,-0.00463,0.0058,-1.0019,0.00195,-0.00354,-0.00784
1790595329.5256298,-0.06597,-0.00367,-1.02132,-0.0062,0.00598,0.01571
1790595329.598008,-0.05531,0.02228,-0.98792,-0.00292,0.02617,-0.01123
1790595329.7301917,0.0109,0.02538,-0.99061,-0.03046,0.0319,-0.03329
1790595329.814868,0.05079,0.04846,-0.98803,0.02068,-0.00313,-0.03136
1790595329.9276905,-0.01037,0.01193,-0.98618,-0.00123,0.00694,-0.00946
1790595329.9877155,-0.03804,0.00534,-1.00199,-0.00998,0.03026,-0.0055
1790595330.1425743,-0.01307,0.01568,-0.99056,0.04163,-0.00364,-0.03144
1790595330.207781,-0.00729,-0.02564,-1.02724,-0.00104,-0.02666,0.00997
1790595330.2949433,0.00858,-0.00142,-1.01317,0.00365,-0.02318,0.01269
1790595330.4380684,-0.05574,0.0171,-0.99798,0.04223,0.00018,-0.00014
1790595330.5074592,-0.13827,0.04012,-0.98291,0.05113,-0.01256,-0.04136
1790595330.6189566,-0.11872,0.02363,-1.00125,0.00574,0.01168,0.009
1790595330.752453,-0.00142,0.00497,-1.00107,0.00702,0.00953,0.00386
1790595330.8077457,0.04781,0.01101,-0.9993,0.01033,0.00465,-0.00325
1790595330.9584517,0.02144,0.00403,-1.00068,0.00532,-0.00766,0.01669
1790595331.0382671,-0.05167,-0.00732,-1.00465,-0.00165,-0.0054,0.01333
1790595331.1631184,-0.03232,0.01311,-1.00117,0.00953,0.00283,-0.00965
1790595331.3479376,-0.01446,0.00086,-1.00143,0.00489,0.0028,0.00483
1790595331.5379915,-0.0186,0.00986,-0.99981,0.00397,0.00247,-0.00078
1790595331.777685,-0.01584,0.00743,-1.00177,0.00659,0.00378,-6e-05
1790595331.9639454,-0.01241,0.00789,-1.00095,0.00477,0.00516,0.00075
1790595332.187879,-0.00649,0.01018,-1.00097,0.00463,0.00268,-0.00096
1790595332.297721,-0.00932,0.00678,-1.00211,0.00272,0.0061,0.00236
1790595332.3679903,-0.009,0.0049,-1.00117,0.00605,0.00407,0.0066
1790595332.5977669,-0.00415,0.00745,-1.00099,0.00466,0.00284,0.00165
1790595332.7679937,-0.00773,0.00911,-1.00017,0.0047,0.00373,-0.00039
1790595333.007702,-0.00156,0.01034,-1.00208,0.00157,-0.00227,-0.00471
1790595333.2125733,-0.00498,0.01151,-1.00214,0.00256,0.00394,-0.00031
1790595333.3776004,-0.01048,0.0079,-1.00315,0.00228,0.00619,-0.00065
1790595333.3776004,-0.00497,0.00338,-1.00189,0.00286,0.00404,0.00712
1790595333.5675569,-0.00998,-0.0233,-1.00242,0.00431,0.00184,0.01206
1790595333.82772,-0.00451,0.0121,-0.99999,0.00419,-0.00054,-0.005
1790595334.028618,-0.00545,0.01442,-1.00213,0.00403,0.00218,-0.0015
1790595334.2358592,-0.00729,0.00773,-1.00187,0.00353,0.00325,0.00069
1790595334.2378688,0.01944,0.01858,-1.00022,0.00159,0.00134,0.0115
1790595334.3827121,0.00112,0.03746,-1.00097,-0.00183,0.00724,-0.03978
1790595334.6379542,-0.00765,-0.00283,-1.00308,0.00453,0.00454,0.01595
1790595334.6483085,-0.02179,-0.00303,-1.00155,0.00669,-0.00058,-0.00367
1790595334.8476708,-0.00654,0.02183,-1.00054,0.00448,0.00507,-0.01322
1790595334.8476708,-0.00569,0.00233,-1.00252,0.00761,0.00059,0.00797
1790595335.0525782,-0.00648,0.00843,-1.00092,0.00477,0.00252,0.00421
1790595335.0525782,-0.0099,0.0066,-1.0009,0.00487,0.00138,0.0034
1790595335.2606997,-0.0051,0.00895,-1.00173,0.00526,0.00388,8e-05
1790595335.2627153,-0.0071,0.00994,-1.0021,0.0052,0.00492,-0.00086
1790595335.37768,-0.00932,0.0092,-1.00268,0.00433,0.00054,0.00132
1790595335.37768,-0.00632,0.00726,-1.00151,0.0057,0.00254,0.00264
1790595335.6694498,-0.00799,0.01003,-1.00047,0.00642,0.0048,0.00154
1790595335.8778255,-0.00429,0.00866,-1.00197,0.00521,0.00244,0.00145
1790595336.077939,-0.00514,0.01624,-1.00199,0.00495,0.00376,-0.00372
1790595336.0826302,-0.00826,0.01109,-1.00251,0.00452,0.00072,-0.00448
1790595336.262789,-0.01355,-0.00728,-1.00043,0.00883,0.00319,0.0422
1790595336.262789,-0.00558,0.00452,-1.00137,0.00515,0.00636,0.0123
1790595336.3875885,-0.00083,0.02156,-1.00241,0.00652,0.00602,-0.01179
1790595336.3994715,-0.01241,-0.00391,-0.9993,0.00618,0.00381,0.012
1790595336.499559,-0.01316,0.00012,-1.00083,0.00727,0.004,0.01391
1790595336.6928577,-0.00947,0.00828,-1.00152,0.00424,0.00608,0.00979
1790595336.8179889,-0.00289,0.01327,-1.00136,0.00235,0.00461,0.00162
1790595336.8980408,-0.00356,0.02115,-1.0008,0.00292,0.00446,-0.01397
1790595336.9577453,-0.00419,0.01988,-0.99933,0.00854,-0.00681,-0.04725
1790595337.1023662,-0.00887,0.00085,-0.99965,0.01045,0.00029,0.03199
1790595337.1076949,-0.00979,0.00506,-1.00157,0.0056,0.00286,0.01652
1790595337.3074157,-0.00215,0.0194,-1.00212,0.00231,0.0035,-0.00487
1790595337.3125699,-0.00212,0.02231,-1.00198,0.00214,0.00305,-0.01458
1790595337.510314,-0.00533,0.0123,-1.00209,0.00694,0.00054,-0.00876
1790595337.562568,-0.00862,0.00247,-1.00219,0.00297,0.00587,0.0028
1790595337.7177112,-0.00083,0.01701,-1.00209,0.00777,0.00821,-0.00862
1790595337.8475006,-0.00199,0.01694,-1.00267,0.00677,0.00345,-0.02268
1790595337.8591688,-0.00668,0.01288,-1.00277,0.001,0.0016,-0.01646
1790595337.9925632,-0.00892,0.00602,-1.00315,0.0054,0.00185,-0.00429
1790595338.1227229,0.09424,-0.00203,-1.00164,0.00156,0.01917,0.0097
1790595338.13789,0.2278,0.00677,-0.99722,0.03223,0.03178,0.01133
1790595338.3328536,0.08993,0.01446,-1.00336,-0.00602,-0.02527,-0.01248
1790595338.3432949,-0.09243,-0.03073,-0.99996,0.01604,-0.03359,0.05449
1790595338.5380359,-0.12744,0.0112,-1.01011,0.00262,-0.01427,0.0248
1790595338.54255,0.01457,0.0296,-0.97547,-0.00706,0.04657,-0.00153
1790595338.7424881,0.08766,0.04014,-0.99102,0.01579,0.00952,0.00139
1790595338.7478247,0.0107,-0.00657,-0.99791,-0.01256,0.01127,0.01925
1790595338.945153,-0.05326,-0.00424,-1.02358,-0.04439,-0.05111,0.00151
1790595338.9608686,-0.05992,0.00536,-1.01883,0.01483,-0.01828,0.01017
1790595339.1075869,-0.01335,-0.00516,-0.99748,0.02555,-0.02303,0.02428
1790595339.1578698,0.03503,0.03906,-0.99131,-0.02489,0.01519,-0.02288
1790595339.3565924,0.01776,0.03087,-0.992,0.02206,-0.01002,-0.01999
1790595339.357671,-0.04178,-0.00148,-0.99771,0.00026,-0.03137,0.00065
1790595339.5617113,-0.03715,-0.00033,-0.99823,0.00405,-0.00685,0.00153
1790595339.7678328,-0.02383,-0.01185,-1.02257,0.00406,-0.01337,0.01575
1790595339.8778977,-0.02828,0.02595,-0.99743,0.02356,-0.00182,-0.01876
1790595339.977615,-0.1085,0.01911,-0.99868,0.00255,-0.00994,0.01302
1790595340.1115403,-0.21512,0.01532,-1.0054,0.00221,0.01122,-0.01811
1790595340.1781633,-0.04239,0.00196,-1.0034,0.00618,0.01124,0.01003
1790595340.3773873,0.08655,0.01427,-1.01347,0.0019,-0.01521,-0.01472
1790595340.3773873,-0.04418,-0.00617,-1.00023,0.00477,0.00076,0.01023
1790595340.5780818,-0.03418,0.00821,-1.00214,0.00281,0.00387,0.00129
1790595340.687587,-0.02323,0.00738,-1.00174,0.00306,0.0058,0.00153
1790595340.8011723,-0.0162,0.00687,-1.00214,0.0031,0.00483,0.00283
1790595340.9875124,-0.01018,0.00927,-1.00353,0.00599,0.00493,-0.00151
1790595341.0013049,-0.01447,0.00854,-1.00113,0.00663,0.00185,0.00038
1790595341.1077538,-0.01966,0.00727,-1.00174,0.00358,0.00408,0.00166
1790595341.1975224,-0.01704,0.01033,-1.00252,0.0042,0.00486,0.00086
1790595341.4006844,-0.01731,0.0086,-1.00201,0.00577,0.00144,0.00275
1790595341.4006844,-0.01671,0.00866,-1.00421,0.00624,0.00115,0.00012
1790595341.5777285,-0.01746,0.00785,-1.00089,0.00428,0.00102,0.00103
1790595341.5995452,-0.01608,0.00757,-1.00098,0.00433,0.00114,-0.00079
1790595341.8149815,-0.00687,0.01131,-1.00043,0.00968,0.00669,-0.00255
1790595341.8178756,-0.02126,0.01242,-1.00266,0.0033,0.00515,-0.00165
1790595342.0174894,-0.01681,0.00888,-1.00132,0.00419,0.00507,-0.00144
1790595342.0174894,-0.01192,0.00871,-1.00226,0.00648,0.0028,-0.00247
1790595342.2252748,-0.01495,0.0087,-1.00162,0.00555,0.00548,-0.00123
1790595342.3920386,-0.01944,0.00213,-1.00102,0.00559,0.0073,0.01656
1790595342.4477763,-0.0258,-0.00167,-1.00027,0.00511,-0.0027,0.0156
1790595342.6276846,-0.0128,0.01956,-1.00134,0.00606,0.00124,-0.02542
1790595342.6398752,-0.01839,0.01894,-1.00173,0.00807,0.00196,-0.00126
1790595342.8392296,-0.01793,0.00724,-1.00268,0.00189,0.00083,-0.00066
1790595342.8402388,-0.01781,0.00825,-1.00189,0.00385,0.00419,0.00193
1790595343.041473,-0.01644,0.00878,-1.00029,0.00403,0.00334,-0.00254
1790595343.217529,-0.01669,0.00344,-1.00159,0.00083,0.00488,-0.00062
1790595343.2377157,-0.01725,0.01604,-1.00388,0.00576,0.00391,-0.00341
1790595343.45303,-0.02439,0.01065,-1.00196,0.00427,0.00228,0.00924
1790595343.6590853,-0.01216,0.01087,-1.00131,0.00364,0.00508,-0.00558
1790595343.6590853,-0.01632,0.00945,-0.99934,0.00799,0.00075,0.00364
1790595343.8628986,-0.01643,0.00963,-1.00224,0.0044,-3e-05,0.00214
1790595344.0580592,-0.01608,0.00636,-1.00415,0.00177,0.00085,0.0065
1790595344.2685287,-0.01519,0.00806,-1.0017,0.00327,0.00284,0.00311
1790595344.4824915,-0.01825,0.00858,-1.00107,0.00531,0.00183,-0.00089
1790595344.4876037,-0.01732,0.0105,-1.00047,0.00334,0.0049,0.00012
1790595344.6776705,-0.01626,0.00824,-1.00022,0.00373,0.00283,0.0016
1790595344.8886933,-0.01683,0.00721,-1.00258,0.00543,0.00336,0.00315
1790595344.903421,-0.0239,-0.00992,-1.0008,0.00841,-0.00343,0.05614
1790595345.0774274,-0.01493,0.01518,-1.00083,0.00417,0.00517,-0.00918
1790595345.2980037,-0.0135,0.00629,-1.00029,0.00683,0.00084,-0.0088
1790595345.4882727,-0.01421,0.01648,-1.00129,0.00484,0.00449,-0.0052
1790595345.5027905,-0.01494,0.00965,-1.00117,0.00599,0.00106,-0.00103
1790595345.7057102,-0.0169,0.00908,-1.00134,0.00508,0.00584,0.00161
1790595345.7228568,-0.03181,-0.00775,-1.00284,0.00461,-0.00055,0.00191
1790595345.8377967,-0.0167,0.01197,-1.00212,0.00899,-0.00158,0.02222
1790595345.9225771,-0.01567,0.01879,-1.00043,0.00381,0.00579,-0.01714
1790595346.0474486,-0.01728,0.012,-1.00036,0.00528,0.00444,-0.00216
1790595346.098625,-0.01378,0.00114,-0.99991,0.00344,0.00512,0.00411
1790595346.2175255,-0.09844,-0.23183,-1.01103,0.01831,0.00061,0.8314
1790595346.2976553,-0.0147,0.00143,-1.00187,0.00711,-0.00132,0.60381
1790595346.3977227,-0.01122,0.01201,-0.99291,0.01014,0.00722,0.69338
1790595346.5024657,-0.01636,-0.00406,-0.9985,0.00758,-0.00719,0.74591
1790595346.620086,-0.03165,-0.01596,-0.99522,0.01768,0.00056,0.75922
1790595346.7384725,0.00135,0.01804,-0.99556,0.01131,0.00504,0.74949
1790595346.8377728,0.00331,0.01344,-1.01829,-0.00976,-0.01298,0.81365
1790595346.898121,-0.03617,0.00065,-1.0054,0.00323,-0.01783,0.75567
1790595347.061789,-0.00338,0.00859,-1.01317,-0.01546,-0.00029,0.79569
1790595347.1208324,-0.0108,-0.01398,-1.00334,-0.01024,-0.01358,0.81618
1790595347.2425644,0.00537,0.00511,-0.94837,0.08815,0.01894,0.79154
1790595347.3425715,-0.01158,0.07501,-1.02031,-0.06775,-0.02065,0.7125
1790595347.4124181,0.00883,0.00966,-1.00356,0.00494,0.00294,0.80322
1790595347.5421941,-0.00278,-0.00529,-1.00764,-0.00076,-0.00507,0.83389
1790595347.6380508,-0.00701,-0.00052,-0.98924,0.01189,-0.01124,0.859
1790595347.7177148,0.00282,0.05593,-0.9956,0.00011,-0.01364,0.72098
1790595347.8429294,-0.01773,-0.0106,-0.9954,0.00884,0.01375,0.76019
1790595347.9556887,0.02293,0.08102,-1.00029,-0.01089,-0.01116,0.47762
1790595348.0326114,-0.0021,0.02285,-0.99897,0.00181,-0.00894,0.63324
1790595348.182948,-0.00544,0.00477,-1.00533,0.00969,-0.0016,0.35274
1790595348.2780566,-0.00334,0.0221,-0.99872,-0.0006,-0.00204,0.41492
1790595348.3418553,-0.01029,0.01205,-1.00388,0.00751,0.00583,0.18991
1790595348.4834514,-0.00329,0.0396,-1.0019,0.00238,0.00286,0.23347
1790595348.5780745,-0.01939,0.01608,-1.0023,0.00567,0.00059,0.23242
1790595348.6529026,-0.02129,0.02045,-0.99965,0.00513,0.00159,0.17312
1790595348.7577915,-0.00168,-0.00647,-1.00301,0.00718,-0.0021,0.21064
1790595348.9780521,-0.02209,0.01765,-0.99927,0.00631,0.00238,0.00711
1790595349.187558,-0.01736,0.00759,-0.99907,0.0055,0.00137,0.00876
1790595349.2027576,-0.01249,0.01002,-1.0027,0.00665,0.00395,0.00131
1790595349.3917696,-0.01066,0.01112,-1.00038,0.00587,0.00291,-0.00121
1790595349.3917696,-0.00937,0.01934,-1.00191,0.00413,0.00281,0.0049
1790595349.5275693,-0.00778,0.03124,-1.00113,0.00798,0.00158,-0.02031
1790595349.5927405,-0.0047,0.02858,-1.00239,0.00592,0.00399,-0.02323
1790595349.8013859,-0.00468,0.03087,-1.0016,0.0055,0.0025,-0.02283
1790595349.91276,0.0082,0.01923,-0.9976,0.00823,0.00814,0.03691
1790595350.0124395,-0.00963,0.00182,-1.00526,0.00296,0.00159,0.01605
1790595350.0777779,0.0354,0.01475,-0.99944,0.00946,0.00904,0.01864
1790595350.2027833,0.22523,0.03292,-1.01411,0.04837,-0.03247,-0.02138
1790595350.282538,0.12148,0.04972,-1.01686,-0.02735,-0.03685,-0.02489
1790595350.4246464,-0.05034,0.02016,-1.00318,0.01858,0.02147,0.0079
1790595350.481017,-0.11701,0.03319,-0.98776,-0.01602,0.0121,-0.01597
1790595350.592497,-0.01477,0.03973,-1.00165,-0.02448,0.01642,-0.02971
1790595350.7476158,0.0683,0.01892,-1.0209,-0.03542,-0.00836,-0.036
1790595350.8375442,0.02815,0.00211,-1.00233,-0.02483,-0.01875,0.02903
1790595351.0281281,-0.02793,0.03984,-0.9881,0.0092,-0.00153,-0.04426
1790595351.032618,-0.05337,-0.00178,-0.99102,0.00705,0.00781,-0.00691
1790595351.1077945,0.00595,0.03585,-0.99479,0.02088,0.02508,-0.01962
1790595351.1977153,0.03709,0.02753,-0.98699,0.01379,0.02913,-0.01575
1790595351.439753,-0.00387,-0.00719,-1.01504,-0.01224,-0.00074,0.02485
1790595351.5378304,-0.02505,0.01721,-0.98976,-0.02388,0.04129,-0.01509
1790595351.609714,-0.01252,0.02334,-1.01035,0.01862,0.01575,-0.0002
1790595351.7025793,0.0095,0.03078,-0.99572,0.01852,0.01017,-0.01725
1790595351.8484125,-0.02025,0.05686,-1.01064,0.01292,0.01345,-0.05092
1790595351.9278288,-0.13145,0.01047,-1.00422,0.01643,-0.01635,0.01804
1790595352.0078468,-0.05776,0.02424,-0.9982,0.00469,0.0161,-0.00354
1790595352.2580492,-0.03145,0.03119,-1.01614,0.00902,-0.01389,-0.01176
1790595352.3326397,-0.01898,0.01383,-1.002,0.00481,0.01403,0.01059
1790595352.418782,0.04647,0.017,-1.00262,0.00848,0.0092,-0.00044
1790595352.5575898,-0.00418,-0.00602,-1.00785,-0.01034,-0.00642,0.02082
1790595352.667448,-0.0576,0.01778,-1.00354,0.00305,-0.00397,-0.01622
1790595352.8574815,-0.0621,0.02877,-0.99909,0.00195,0.00588,-0.01936
1790595352.9775639,-0.01301,0.01122,-1.0006,0.00555,0.00499,0.00466
1790595353.0781536,-0.00533,0.02217,-1.00156,0.00652,0.004,-8e-05
1790595353.2827055,-0.01103,0.01848,-1.00115,0.00726,0.00444,0.00174
1790595353.2827055,-0.00924,0.01826,-1.00086,0.00138,0.00282,0.00019
1790595353.4114902,-0.00639,0.0198,-1.00327,0.00703,0.00324,0.00036
1790595353.4775457,-0.01128,0.01657,-1.00228,0.005,0.00392,-0.00024
1790595353.5576203,-0.01151,0.0185,-1.0022,0.00076,0.00824,-0.01013
1790595353.678129,-0.01328,0.00692,-1.00243,0.00606,0.00636,0.0182
1790595353.9004111,-0.01201,0.0124,-1.00428,0.00788,0.00273,0.0072
1790595354.0706644,-0.00819,0.01927,-1.00077,0.00328,0.00107,0.00122
1790595354.0706644,-0.00956,0.01893,-0.99961,0.00356,0.00384,-0.00309
1790595354.3075092,-0.0159,0.0189,-1.00096,0.00299,0.00443,0.00211
1790595354.507873,-0.00666,0.01778,-1.00452,0.0035,0.00363,0.00167
1790595354.507873,-0.00703,0.02045,-1.00355,0.00457,0.00231,0.00287
1790595354.5676918,-0.00914,0.01501,-1.00004,0.00233,0.00437,0.00143
1790595354.7177677,-0.01001,0.0038,-0.99893,0.00699,-0.00553,0.00976
1790595354.89271,-0.00839,0.01026,-1.001,0.0043,0.00393,0.01178
1790595355.1180608,-0.00463,0.02982,-0.9994,0.0107,-0.00019,-0.03253
1790595355.1262174,-0.00501,0.03425,-0.99969,0.00482,0.00162,-0.00238
1790595355.3278377,-0.00642,0.01332,-1.00066,0.00441,0.00234,-0.00138
1790595355.3278377,-0.00907,0.01796,-1.00117,0.00554,0.00412,0.00413
1790595355.5351615,-0.00929,0.01512,-1.00184,0.00442,0.00331,0.00129
1790595355.5376675,-0.01157,0.00735,-1.00201,0.00445,-0.00486,0.02952
1790595355.5775054,-0.02395,-0.00464,-1.00174,0.00571,-0.00156,0.02003
1790595355.717533,-0.0093,0.01843,-1.00297,0.0054,0.00365,0.0055
1790595355.9377449,-0.00717,0.01679,-1.00182,0.0054,0.0046,-0.00265
1790595355.9377449,-0.02827,0.00723,-1.00346,0.00676,0.00174,0.01549
1790595356.14805,-0.00951,0.02231,-0.99903,0.004,0.00651,-0.0066
1790595356.152565,-0.00615,0.01849,-1.00163,0.00656,0.00225,0.00516
1790595356.3478577,-0.00925,0.0204,-1.0011,0.00489,0.00573,0.00016
1790595356.5587342,-0.00764,0.01861,-1.00271,0.00743,0.00209,0.00042
1790595356.5604825,-0.00931,0.01938,-1.00158,0.00371,0.00478,0.00376
1790595356.5829914,-0.01061,0.019,-1.00157,0.00288,0.00076,-0.00075
1790595356.757873,-0.0101,0.01821,-1.00027,0.0047,0.00176,0.00019
1790595356.9674578,-0.00855,0.01941,-0.99921,0.00627,0.00199,0.0006
1790595356.9725494,-0.01122,0.01608,-0.99991,0.00278,0.00361,0.0035
1790595357.1731005,-0.00775,0.0204,-1.0019,0.00592,0.00286,-0.00021
1790595357.3777199,-0.00922,0.02069,-1.00229,0.00618,0.00086,-0.00206
1790595357.3777199,-0.00729,0.01924,-1.00022,0.00504,0.00072,-0.00101
1790595357.5579462,-0.0138,-0.00936,-1.00223,0.00428,0.00651,0.02625
1790595357.5999424,-0.00156,0.03351,-1.00037,0.00404,0.00257,-0.01408
1790595357.7877183,-0.00834,0.01192,-0.99968,0.00422,0.00717,-0.0027
1790595357.8581069,-0.01518,0.01371,-1.00223,0.00441,0.00561,0.00794
1790595357.9877741,-0.00731,0.02388,-1.00203,0.00515,0.00125,-0.00518
1790595358.1975243,-0.00693,0.01484,-0.99968,0.00434,0.00752,0.00175
1790595358.1975243,-0.00987,0.02043,-0.99993,0.0058,0.00199,0.00247
1790595358.3277137,0.00013,0.0375,-1.00225,0.00395,-0.0015,-0.04445
1790595358.344035,-0.01021,0.00235,-1.00216,0.0076,0.00313,0.01401
1790595358.5278578,-0.01046,0.01834,-1.00265,0.00311,0.00524,-0.00146
1790595358.5428534,-0.00758,0.02291,-1.00154,0.00525,0.00279,-0.00154
1790595358.812474,-0.00918,0.02186,-1.00032,0.00579,0.00513,-0.00298
1790595358.9333556,-0.01079,0.01815,-1.00219,0.0065,0.00251,-0.00136
1790595358.935376,-0.00824,0.01904,-1.00067,0.00402,0.00531,0.0016
1790595359.1445768,-0.01243,-0.00022,-1.00048,0.0029,0.01076,0.00908
1790595359.1600187,-0.00977,0.01486,-0.99882,0.00428,0.00193,0.007
1790595359.2834303,-0.00601,0.0265,-0.99991,0.00711,0.00162,-0.00816
1790595359.4276032,0.10235,0.02322,-0.99868,0.00568,0.02397,-0.0174
1790595359.4376323,0.2146,0.00786,-0.98226,0.02572,0.02361,0.08806
1790595359.597617,0.08738,-0.00813,-1.01698,-0.02777,-0.01607,0.03016
1790595359.6877487,-0.08533,0.04201,-0.98805,0.02951,-0.00673,-0.05834
1790595359.8334835,-0.12526,0.02969,-0.99248,-0.00805,0.01833,-0.02179
1790595359.8947012,-0.00106,0.01471,-1.0008,-0.01481,0.02757,-0.01667
1790595360.037778,0.09235,0.03428,-0.9995,0.00369,-0.01182,-0.03093
1790595360.1077032,-0.02471,-0.0364,-1.00278,-0.00463,-0.0303,0.03534
1790595360.1926737,-0.07336,-0.02968,-1.01833,0.01902,-0.02085,0.02821
1790595360.452538,-0.00213,0.02835,-0.98247,0.00741,0.03856,-0.01636
1790595360.5278294,0.03135,0.02977,-0.9838,0.0105,0.01369,-0.00675
1790595360.5974517,-0.00198,0.0174,-0.99559,0.02474,0.03644,-0.03923
1790595360.858361,-0.05039,-0.00839,-1.01395,-0.01154,-0.00572,0.03223
1790595360.858361,-0.03525,-0.00785,-1.03129,-0.05845,-0.00361,0.02162
1790595361.0626204,-0.0002,-0.02859,-0.98578,0.05874,0.02142,0.06858
1790595361.0626204,0.0016,0.00422,-1.00401,0.00071,0.01507,-0.01306
1790595361.1330419,0.01084,0.05264,-1.0003,-0.00089,0.02657,-0.03579
1790595361.2676706,-0.02516,0.01742,-0.98779,-0.0065,-0.00133,-0.01575
1790595361.2795033,-0.01852,0.03138,-1.00451,-0.00393,-0.00065,-0.03686
1790595361.4739246,0.00702,0.00776,-1.02835,-0.02208,-0.02846,-0.01088
1790595361.4826615,-0.17194,0.02627,-0.99769,0.01671,0.00858,-0.03058
1790595361.6076012,-0.14028,0.02241,-1.00306,0.00616,0.00619,0.0225
1790595361.883544,-0.01225,0.00895,-1.00138,0.00459,0.00528,0.02317
1790595361.883544,0.00091,0.01067,-1.00133,0.00678,0.00404,0.00359
1790595362.0530071,-0.00787,0.01441,-1.00119,0.0053,0.00616,0.00108
1790595362.288206,-0.01103,0.01463,-1.00296,0.00403,0.0031,0.0021
1790595362.3035715,-0.00927,0.01393,-1.00466,0.00588,0.00512,0.00285
1790595362.4857903,-0.00869,0.01334,-1.0013,0.00291,0.00352,0.00098
1790595362.6182427,-0.01012,0.0142,-0.99907,0.00686,0.00418,0.00075
1790595362.7080698,-0.01147,0.00957,-1.00135,0.0075,0.00078,0.00698
1790595362.9077327,-0.00943,0.00653,-1.00365,0.00402,0.00344,0.01084
1790595362.9186778,-0.011,0.01365,-1.00135,0.00517,0.00358,0.0033
1790595363.0779397,-0.00721,0.01653,-1.00098,0.00284,0.00424,-0.00017
1790595363.3192303,0.00311,0.02168,-1.00216,0.00476,0.00544,-0.01682
1790595363.3225248,-0.01617,0.01132,-1.00037,0.00637,0.00306,0.00506
1790595363.5227118,-0.0074,0.01631,-1.00259,0.00575,0.00306,0.00019
1790595363.5227118,-0.00455,0.01948,-1.00006,0.00324,0.00492,-0.00183
1790595363.6178865,-0.01275,0.00222,-0.99977,-0.00623,0.00638,0.00963
1790595363.7273428,-0.01644,-0.01656,-1.00009,0.0033,0.00324,0.02531
1790595363.9275405,-0.01357,-0.00053,-1.00283,0.00659,0.00655,0.00229
1790595363.9376626,-0.00668,0.0232,-1.00232,0.00401,0.00364,0.01021
1790595364.1380439,-0.00414,0.01485,-0.99909,0.00463,0.00234,0.00082
1790595364.1380439,-0.01041,0.01338,-1.00258,0.00447,0.00346,0.00262
1790595364.3425758,-0.0105,0.00615,-0.99896,0.00316,0.00609,0.00569
1790595364.5429022,-0.03305,-0.0165,-1.00163,0.00391,-0.00224,0.03841
1790595364.6286745,-0.01527,-0.00643,-1.00184,0.00169,0.00543,0.02719
1790595364.7276957,-0.00694,0.01499,-1.00251,0.00515,0.00487,0.00654
1790595364.948127,-0.00556,0.02198,-1.00137,0.00316,0.00547,-0.00264
1790595364.9577434,-0.00667,0.01878,-1.00227,0.00444,0.01012,-0.02085
1790595364.9629087,-0.00877,0.02698,-1.00022,0.00593,0.00163,-0.01642
1790595365.162765,-0.00784,0.01206,-1.0017,0.00309,0.00142,-0.00437
1790595365.3676066,-0.01308,0.00361,-1.00226,0.00363,0.00138,0.01878
1790595365.5681136,-0.01055,0.00834,-1.00035,0.00469,0.00285,0.01602
1790595365.5830247,-0.01138,0.00915,-0.99883,0.00381,0.00204,0.0105
1790595365.777704,-0.0093,0.01227,-1.00327,0.00628,0.00062,0.00793
1790595365.7829983,-0.00797,0.01777,-1.0034,0.0057,0.00152,-0.00148
1790595365.9782574,-0.00347,0.02597,-1.00164,0.00461,0.00492,-0.01135
1790595365.9782574,-0.00438,0.02676,-1.00267,0.00665,0.00383,-0.01721
1790595366.1780863,-0.00218,0.02864,-1.00112,0.00376,0.0052,-0.024
1790595366.189217,-0.00492,0.02815,-1.0007,0.00546,0.00411,-0.02272
1790595366.3880394,-0.00296,0.02409,-1.00123,0.00642,0.00073,-0.02312
1790595366.4029944,-0.02189,0.0263,-1.00154,0.00724,-0.00171,0.04154
1790595366.5680923,-0.00669,0.00741,-1.00275,0.00231,0.00425,0.00112
1790595366.79759,-0.00263,0.02271,-0.99914,0.00237,-0.00043,-0.02192
1790595366.79759,0.00049,0.02869,-1.00023,0.00579,0.00107,-0.02847
1790595367.0078182,-0.00627,0.02637,-1.00127,0.00627,0.00326,-0.01734
1790595367.2075799,-0.01081,0.01897,-1.00266,0.00316,0.00262,-0.01695
1790595367.217868,-0.01792,0.01282,-1.00236,0.00318,0.00547,-0.01738
1790595367.3375862,-0.01537,-0.00473,-1.0019,0.00293,0.00515,0.04472
1790595367.4255695,-0.01059,0.00843,-1.00142,0.00317,0.00386,0.0168
1790595367.5378437,-0.00821,0.01406,-0.99985,0.00337,0.0082,0.00396
1790595367.6100528,-0.00564,0.02326,-1.00005,0.00463,0.00354,-0.00402
1790595367.7575023,0.03985,0.18052,-1.00191,-0.00492,0.03031,-0.87579
1790595367.820261,-0.01783,0.01324,-1.00886,-0.03711,0.00884,-0.59571
1790595367.9298062,0.00707,-0.0085,-1.00704,0.02515,0.02026,-0.70605
1790595368.0278184,-0.0239,-0.00957,-1.0333,-0.0168,-0.03086,-0.7014
1790595368.1032083,0.00185,0.01871,-0.9977,0.01508,-0.00108,-0.79001
1790595368.2228265,-0.00834,0.0142,-1.00337,0.00776,0.00459,-0.74863
1790595368.3224607,-0.01005,-0.00661,-0.99773,-0.00665,-0.02651,-0.81762
1790595368.402025,0.01235,0.02138,-1.0025,0.00916,-0.00915,-0.78685
1790595368.5025852,0.00949,0.02092,-0.99727,0.00716,0.01648,-0.76049
1790595368.6033833,-0.00264,0.05696,-1.00259,-0.00063,0.03167,-0.80099
1790595368.7578375,-0.01393,-0.01833,-0.98677,0.03653,0.02569,-0.77781
1790595368.8582735,-0.00453,-0.007,-1.00464,0.00723,0.00208,-0.78451
1790595368.9476633,0.00172,0.03548,-1.00266,-0.00207,0.0168,-0.78781
1790595369.0510187,-0.01765,0.02529,-1.0033,0.00387,0.00797,-0.75035
1790595369.178294,0.00129,0.01708,-1.00218,-0.00306,0.01139,-0.81864
1790595369.24435,-0.00604,0.0192,-0.99462,0.01968,0.00827,-0.77355
1790595369.3675182,-0.00914,-0.00486,-0.99899,-0.01901,0.02795,-0.82147
1790595369.438835,0.00112,0.03248,-0.99312,0.0067,0.02538,-0.78086
1790595369.542969,-0.02105,0.0037,-1.01057,-0.01363,0.02276,-0.74737
1790595369.6476061,-0.00561,0.01352,-1.00763,0.0291,0.02512,-0.84434
1790595369.7183468,-0.03118,-0.01,-1.01205,0.00634,0.00991,-0.70247
1790595369.8380673,0.00897,0.00145,-1.00452,-0.02068,0.02594,-0.81544
1790595369.9576857,-0.01647,0.02775,-0.99188,0.00643,0.03756,-0.80697
1790595370.08422,0.00393,0.01108,-1.0063,0.01052,0.01453,-0.80179
1790595370.1377997,-0.03299,-0.009,-1.00999,0.00946,0.01227,-0.6893
1790595370.2233107,-0.02138,-0.01206,-1.00197,-0.02198,0.02609,-0.79406
1790595370.3878155,0.01422,0.00198,-0.99711,0.00767,-0.00425,-0.78714
1790595370.4778972,0.01271,0.03229,-0.98834,0.00451,0.00462,-0.8376
1790595370.5579245,-0.01063,0.04025,-0.99762,0.01226,0.01159,-0.7961
1790595370.677541,-0.01076,-0.00958,-0.99323,0.01681,0.01333,-0.79015
1790595370.7426193,0.01488,-0.00349,-1.00259,-0.00867,0.01994,-0.79933
1790595370.85786,0.00856,0.03727,-1.00027,0.00459,0.01787,-0.78511
1790595371.0375605,-0.02488,0.0066,-0.99647,0.02294,-0.00106,-0.77341
1790595371.0375605,-0.00171,0.01108,-0.99163,-0.00681,0.02487,-0.80141
1790595371.2077813,-0.0275,-0.05009,-1.00823,0.00036,-0.00599,-0.59608
1790595371.2809105,0.01115,0.01909,-1.00505,-0.01152,0.02218,-0.71617
1790595371.3878417,-0.02318,-0.05805,-1.00483,0.01004,-0.00918,-0.49568
1790595371.4599712,-0.0029,0.02332,-1.00454,0.01087,0.0054,-0.58954
1790595371.5807161,-0.01029,-0.00208,-1.00143,0.00443,0.00615,-0.36631
1790595371.6827197,-0.03379,-0.05627,-0.99418,0.00766,-0.01276,-0.16696
1790595371.918558,-0.0227,-0.01301,-0.99906,0.0108,0.0014,0.02934
1790595371.9993238,-0.0119,-0.00102,-1.00034,0.00798,0.00475,0.0057
1790595372.1264763,-0.00031,0.00395,-1.00151,0.00769,0.00272,0.02492
1790595372.3274276,-0.02707,-0.01137,-0.99983,0.00161,0.00859,0.02065
1790595372.532945,-0.01892,-0.01691,-0.99914,0.0065,0.0022,0.02697
1790595372.532945,-0.01052,-0.01519,-1.00148,0.00285,0.00876,0.02261
1790595372.6878164,-0.01579,-0.0151,-0.99981,0.00498,0.00936,0.0197
1790595372.942747,-0.00382,0.01451,-1.00244,0.00513,-0.00043,-0.02808
1790595373.057562,0.00692,0.00968,-1.00188,0.00507,0.00673,-0.02428
1790595373.1473749,-0.01751,-0.02112,-0.99994,0.00178,0.01415,0.02479
1790595373.2229142,-0.01406,-0.01739,-1.00068,0.00534,0.0045,0.02015
1790595373.3377287,0.05393,-0.00698,-1.00005,-0.00151,0.00952,-0.06493
1790595373.549152,0.21257,-0.01024,-1.01759,-0.01443,0.00646,-0.04274
1790595373.5575137,0.12334,0.00412,-0.95473,0.04355,0.01108,-0.15119
1790595373.6983414,-0.0653,-0.04848,-1.00239,-0.02265,-0.00379,-0.08796
1790595373.9678986,-0.02825,-0.01495,-0.99957,-0.02337,0.01228,-0.08931
1790595374.0329473,0.03757,-0.0031,-1.00904,-0.02228,0.00456,-0.10276
1790595374.1713467,-0.02648,-0.01666,-0.99965,0.00478,0.00033,-0.10034
1790595374.2379076,-0.05933,0.01298,-0.98406,0.00894,0.03932,-0.09301
1790595374.3729806,0.00509,0.0104,-1.00327,0.00178,0.00857,-0.05649
1790595374.5775502,0.03692,0.01882,-0.99881,0.00977,0.01305,-0.06545
1790595374.5879653,-0.00621,0.00421,-1.03192,-0.00894,-0.03529,-0.04143
1790595374.5983536,-0.03816,0.02107,-1.00758,-0.01923,-0.0006,-0.02358
1790595374.7174313,-0.01794,0.02097,-0.96142,0.05511,0.00695,-0.02893
1790595374.8029904,-0.01853,-0.03773,-1.00589,-0.01212,0.00473,0.01097
1790595374.9176857,0.02098,-0.00469,-0.99719,-0.00717,0.01011,-0.00982
1790595374.9952688,-0.02993,0.01221,-1.00242,0.01109,0.01883,-0.04204
1790595375.189361,-0.02908,-0.00739,-1.00187,-0.00257,0.02098,0.01297
1790595375.2677133,0.02843,0.00465,-1.01183,0.0228,-0.00929,0.01015
1790595375.4015925,-0.04483,-0.01685,-0.99746,-0.00647,0.00132,0.01404
1790595375.59893,-0.03556,0.00364,-1.00081,0.0035,0.00831,0.00149
1790595375.7274253,0.08357,0.00351,-1.00308,0.01007,0.01369,-0.00197
1790595375.7382274,0.05006,0.00302,-0.99805,0.0092,0.01593,0.0042
1790595376.0084066,-0.05514,-0.00432,-1.00377,0.00661,0.01163,-0.00359
1790595376.0174937,-0.08465,0.03564,-1.00321,0.00828,0.00212,-0.01636
1790595376.2180917,-0.01603,0.00717,-1.00297,0.00346,0.00575,-0.00793
1790595376.2889292,-0.00404,0.00098,-1.00138,0.00567,0.00178,-0.00097
1790595376.4249015,-0.00234,-0.00063,-1.00273,0.00582,0.0041,0.00199
1790595376.6282783,-0.00548,-0.00041,-0.99956,0.00405,0.00303,0.00158
1790595376.6282783,-0.0078,0.00279,-1.00331,0.00294,0.00206,-0.00076
1790595376.6385977,-0.00456,0.00107,-1.00069,0.0022,0.00415,0.00148
1790595376.8337984,-0.00593,0.00018,-1.00292,0.00418,0.00234,0.00073
1790595376.842522,0.00266,0.00165,-0.99941,0.00599,0.00097,-0.011
1790595376.944777,-0.00472,0.01218,-1.00228,0.00291,0.00743,-0.0151
1790595377.2162018,-0.0098,-0.01217,-1.00122,0.00334,0.00501,0.00366
1790595377.22073,-0.00618,-0.0046,-1.00042,0.00569,0.00646,0.00883
1790595377.4491923,-0.00377,0.00515,-1.00252,0.00691,0.00249,-0.00525
1790595377.6510367,-0.00601,-0.00025,-1.00209,0.00461,0.00523,0.00178
1790595377.6510367,-0.00285,0.00268,-1.00015,0.00536,0.00332,-0.00169
1790595377.7273526,-0.00828,-0.00175,-1.00191,0.00484,0.00618,0.00187
1790595377.8590121,-0.00724,0.00231,-1.00271,0.00478,0.00662,-0.00094
1790595378.030166,0.00335,0.03422,-0.99878,0.00829,0.00291,-0.05346
1790595378.032687,-0.01001,-0.0153,-1.00369,0.00333,0.00526,0.00894
1790595378.2675083,-0.00651,-0.01418,-1.00212,0.00445,0.00897,0.00396
1790595378.4675722,-0.00531,0.00045,-1.00102,0.00911,0.00413,0.00172
1790595378.4675722,-0.00255,0.00379,-1.00188,0.00907,0.0058,-0.00164
1790595378.677523,-0.0053,0.00313,-1.00193,0.00435,0.00299,0.00379
1790595378.677523,-0.00723,-0.00114,-1.00081,0.00206,0.00113,0.00092
1790595378.7380338,-0.00388,0.01623,-1.00167,0.0063,0.00177,-0.04814
1790595378.85784,-0.01158,-0.00574,-1.00196,0.00391,0.00324,0.00245
1790595379.0847282,-0.00796,-0.01292,-1.00228,0.00371,0.00413,0.02031
1790595379.087684,0.0089,0.01713,-1.00077,0.00429,0.00351,-0.00508
1790595379.1029055,-0.01006,0.00944,-1.00256,0.00375,0.00177,-0.006
1790595379.287627,-0.00155,-0.00093,-1.00058,0.00677,0.00478,1e-05
1790595379.303343,-0.00422,0.00215,-1.0009,0.00623,0.00234,0.00061
1790595379.497874,-0.00584,0.0004,-1.0026,0.00329,0.00498,-0.00022
1790595379.502909,-0.00616,0.00241,-1.00192,0.00462,0.00201,0.00096
1790595379.6978285,-0.00578,0.00202,-1.00374,0.00355,0.00137,-0.0002
1790595379.8978796,-0.00493,0.00016,-1.00225,0.00499,0.00254,0.00027
1790595379.9176416,-0.0055,-0.00122,-1.00193,0.00467,0.00093,0.00245
1790595380.112708,-0.00473,0.00303,-1.0027,0.00597,0.00456,-0.00101
1790595380.122916,-0.0027,-0.00017,-1.00091,0.00204,0.00519,0.00373
1790595380.3094943,-0.00435,0.00103,-1.00304,0.00526,0.00195,0.00391
1790595380.322937,-0.00783,-0.00138,-1.00252,0.00487,0.0024,0.00262
1790595380.5228322,-0.00653,0.00171,-1.00114,0.00277,0.00596,0.00559
1790595380.5282226,-0.01321,-0.00988,-1.00201,0.00225,0.00199,-0.00563
1790595380.7131374,-0.01343,-0.02681,-1.00026,0.00783,0.00825,0.03002
1790595380.722661,-0.00874,-0.00722,-0.99935,0.00489,0.00273,0.0203
1790595380.927735,-0.00514,0.00139,-1.00012,0.00506,0.00733,0.00785
1790595380.9425285,-0.003,-0.00376,-1.00207,0.00272,0.00237,-0.00161
1790595381.1297078,-0.00725,0.00467,-1.00009,0.00581,0.00062,0.00254
1790595381.1374736,-0.00416,-0.00143,-1.00143,0.00339,0.002,0.00177
1790595381.337579,-0.01744,0.01396,-1.00387,0.00046,0.00245,-0.01393
1790595381.337579,-0.00486,-0.01179,-1.00255,0.00101,0.00694,-0.00594
1790595381.4574485,-0.00824,-0.00458,-1.0011,0.00348,0.00456,0.01456
1790595381.5452573,-0.00961,-0.01004,-1.00248,0.00345,0.00207,0.01504
1790595381.667655,-0.00887,-0.00294,-1.00019,0.00372,0.00439,0.01638
1790595381.76254,0.0666,0.19035,-1.00194,-0.00331,0.00391,-0.50104
1790595381.8584,0.00106,0.03121,-0.99809,-0.03172,0.02569,-0.66306
1790595381.962562,0.00556,-0.03683,-0.99805,0.02949,0.00106,-0.66624
1790595382.08295,0.01421,-0.00075,-1.00982,0.00136,0.00928,-0.73488
1790595382.1625762,-0.00653,0.02631,-1.00897,0.00652,-0.02205,-0.76661
1790595382.2974365,-0.01503,0.01087,-1.00943,0.00095,0.01464,-0.80005
1790595382.3576164,0.00193,-0.03439,-1.00132,0.00146,0.01061,-0.7284
1790595382.4831965,0.03244,-0.01614,-1.00449,-0.0001,0.01886,-0.79086
1790595382.580252,0.00224,-0.0118,-1.00405,0.0211,-0.00086,-0.7381
1790595382.6924286,-0.01088,0.00153,-0.99356,-0.00298,0.01546,-0.74369
1790595382.762757,0.00427,0.02281,-1.01127,0.02537,-0.00458,-0.8456
1790595382.8828862,0.00702,-0.04184,-1.00392,0.0215,0.00229,-0.73827
1790595382.972421,0.01993,-0.01681,-1.00372,-0.01118,0.01638,-0.82998
1790595383.057465,0.01668,0.04925,-0.98147,0.00476,0.0023,-0.82975
1790595383.1847823,-0.01187,0.00029,-1.00797,0.0036,0.00954,-0.73566
1790595383.3077924,0.01335,0.02852,-1.0012,0.0114,-0.0024,-0.85968
1790595383.3824332,0.0089,-0.01508,-1.00082,0.00159,0.01565,-0.54625
1790595383.4976366,0.02026,0.00633,-1.00535,0.02868,0.00357,-0.69643
1790595383.5626247,0.01796,0.04058,-1.00187,0.00497,0.00645,-0.44369
1790595383.6828427,-0.02785,0.01532,-0.98861,-0.00174,0.02464,-0.46503
1790595383.7774825,0.01366,0.0294,-1.0005,0.00886,-1e-05,-0.31237
1790595383.892887,0.02173,0.0072,-1.00213,-0.00019,0.00729,-0.33582
1790595383.9634917,0.0158,0.02684,-1.00334,0.0083,0.00141,-0.16794
1790595384.0975027,-0.0283,0.0024,-1.00072,0.00975,0.00549,-0.19731
1790595384.2076187,-0.01804,0.00769,-0.99718,-0.00419,0.01042,-0.22571
1790595384.3175294,0.0329,0.03206,-1.00089,0.01232,0.00331,-0.19634
1790595384.4575045,0.01599,0.00818,-1.00286,0.00413,0.00327,-0.16235
1790595384.5176904,-0.01148,0.00235,-1.004,0.00647,0.00567,-0.17474
1790595384.6126325,-0.0187,0.0165,-1.00149,0.00529,0.00422,-0.16995
1790595384.7926674,0.01017,0.02149,-1.00539,0.00725,0.00019,0.01375
1790595384.7926674,0.00394,0.01342,-1.00432,0.00217,0.00262,0.00339
1790595384.9276557,0.00668,0.02229,-1.00185,0.00505,0.00273,-0.00547
1790595385.030847,0.00735,0.02796,-1.00067,0.00417,0.00579,-0.01809
1790595385.2282593,0.00618,0.04057,-1.00269,0.00422,-0.00127,-0.05069
1790595385.2377217,0.00666,0.02018,-1.00195,0.00558,0.00399,-0.02338
1790595385.4400058,0.00906,0.0216,-1.00245,0.00658,0.00493,-0.02444
1790595385.6426377,0.00667,0.02183,-1.00057,0.00377,0.00221,-0.03056
1790595385.7581725,-0.00825,0.00203,-1.00345,0.00667,0.00585,0.0172
1790595385.7977157,-0.00492,-0.0042,-1.0025,0.0049,0.0099,0.01915
1790595386.0479324,-0.00243,-0.00108,-1.00202,0.00454,0.00922,0.0116
1790595386.1146405,0.21911,0.03753,-1.019,-0.05292,-0.04969,0.01458
1790595386.2538142,0.05548,0.028,-0.99004,0.02437,-0.0136,-0.03146
1790595386.3277273,-0.08989,0.01456,-1.0086,0.05306,-0.0149,0.0092
1790595386.420918,-0.07892,0.01991,-0.99337,-0.01007,0.01302,-0.00177
1790595386.6638544,0.02276,-0.00878,-1.00385,-0.01935,0.0052,0.04723
1790595386.6638544,0.06955,0.00215,-0.99916,0.00212,-0.01584,0.02962
1790595386.7429273,0.00627,0.02641,-1.03004,0.01328,-0.01107,0.00022
1790595386.8714812,-0.03753,0.00926,-0.98341,0.0252,0.00392,0.00897
1790595386.898121,-0.026,0.03579,-1.0059,0.02338,0.00085,-0.0086
1790595387.0377119,0.01892,0.02335,-0.99849,0.01928,0.01912,-0.02526
1790595387.1381948,0.01737,0.01604,-1.01342,0.003,0.00074,0.03339
1790595387.278104,-0.01347,-0.01873,-0.99486,-0.00016,-0.00881,0.04099
1790595387.4784095,-0.03231,0.06073,-1.00986,0.02038,-0.0541,-0.04096
1790595387.5481064,-0.00084,0.01135,-1.02664,0.00327,-0.08858,0.04126
1790595387.6225483,-0.02419,-0.09437,-1.02499,0.05027,-0.04944,-0.00031
1790595387.8178403,-0.16808,0.05668,-0.98831,-0.0121,0.02376,-0.03329
1790595387.8178403,-0.09941,0.02062,-0.99966,0.00959,0.00966,-0.00277
1790595387.968248,0.06725,-0.00131,-1.00339,0.00522,0.01642,0.01371
1790595388.0653985,0.07728,0.02062,-0.99499,0.0163,0.00244,0.00409
1790595388.3027244,-0.15104,-0.00418,-0.99894,0.00682,0.0068,0.017
1790595388.3027244,-0.03099,0.04031,-1.00232,0.00338,0.00137,-0.08069
1790595388.368035,-0.02721,-0.01272,-1.00209,0.00143,0.0047,0.01162
1790595388.5175955,-0.01377,0.00451,-1.00098,0.0068,0.00384,0.0118
1790595388.7124572,-0.0102,0.01442,-1.00246,0.00361,0.00558,-0.00557
1790595388.7797642,-0.00111,0.01099,-1.00157,0.00019,0.00561,3e-05
1790595388.917798,0.01013,0.02524,-1.0019,0.00266,-0.00848,-0.02767
1790595389.0426035,-0.00661,-0.01391,-1.00265,0.00747,0.00568,0.01465
1790595389.0585809,-0.01137,0.01211,-1.00104,0.00255,0.00748,0.00546
1790595389.3021574,-0.01185,0.02171,-1.0024,0.0053,0.00108,-0.00329
1790595389.3037267,-0.00633,0.01156,-0.99993,0.00409,0.00303,-0.00373
1790595389.530747,-0.00965,0.01132,-1.00336,0.00473,0.00154,-0.00425
1790595389.530747,-0.01448,0.02008,-1.00067,0.00526,0.00486,-0.00676
1790595389.7387474,-0.0105,0.00869,-1.00145,0.00412,0.00406,-0.00023
1790595389.7393575,-0.00587,0.0069,-1.00047,0.00668,0.00016,0.00457
1790595389.8292336,-0.00876,0.01042,-1.00194,0.00409,0.00188,0.004
1790595389.9424825,-0.01033,0.00933,-1.0019,0.00791,0.00443,0.0051
1790595390.1130977,-0.01103,0.01176,-1.00116,0.00327,0.00195,0.00614
1790595390.3479548,-0.00608,0.014,-1.00042,0.00474,0.00553,-0.00415
1790595390.3479548,-0.01447,0.00719,-1.00255,0.00443,-0.00464,0.00196
1790595390.5522933,-0.00863,0.0104,-1.00181,0.00233,0.00193,0.0041
1790595390.5575252,-0.00711,0.01155,-1.0,0.00552,0.00467,0.00143
1790595390.7583048,-0.00823,0.00885,-1.00157,0.00302,0.00253,-3e-05
1790595390.7583048,-0.00946,0.01074,-1.00166,0.0043,0.0049,0.00149
1790595390.8282833,-0.03579,-0.00202,-1.00228,0.00766,0.00132,0.02134
1790595390.95293,-0.0044,0.02618,-0.99721,0.00241,0.00592,-0.01632
1790595391.1705964,-0.00889,0.01172,-1.0029,0.00377,0.00418,0.00113
1790595391.1705964,0.0012,0.01173,-1.00064,0.00543,0.00256,-0.00495
1790595391.3753061,-0.00393,0.01188,-1.0022,0.00314,0.00513,-0.00152
1790595391.5850296,-0.01043,0.01085,-1.00467,0.00556,0.00518,0.00112
1790595391.7781382,-0.00859,0.01138,-1.0013,0.00586,0.00496,-0.00012
1790595391.7875378,-0.00926,0.01128,-1.00029,0.00432,0.00258,-0.0004
1790595391.8474336,-0.00946,0.01047,-1.00112,0.00384,0.00229,0.00115
1790595391.9875135,-0.00883,0.01166,-1.00159,0.00491,0.00483,-0.00027
1790595392.1880069,-0.00659,0.01028,-1.00125,0.00283,0.00449,-0.0001
1790595392.3978465,-0.00846,0.01045,-1.0006,0.00275,0.00465,0.00463
1790595392.5982199,-0.00702,0.01179,-1.00118,0.00497,0.0025,-0.00028
1790595392.6141174,-0.01175,0.01004,-1.00116,0.00621,0.00503,0.00166
1790595392.7896192,-0.0083,0.02196,-1.00048,0.00163,0.00761,-0.0038
1790595392.7983809,-0.01155,0.00119,-1.00227,0.00425,0.00162,0.00926
1790595392.8576655,-0.00652,0.01506,-1.00183,0.00618,0.00278,-0.02396
1790595393.0171487,-0.00291,0.01571,-1.00111,0.00824,0.00557,0.00077
1790595393.0425963,-0.00839,0.0129,-1.00132,0.0062,0.00307,-2e-05
1790595393.2237964,-0.00875,0.00941,-1.0022,0.00331,0.00316,0.00365
1790595393.4177105,-0.00921,0.00895,-1.00132,0.00656,-0.00158,0.00191
1790595393.4227996,-0.02122,0.00856,-1.00339,0.00417,0.00738,0.00631
1790595393.5527964,-0.00442,0.03007,-1.00105,0.0042,0.00254,-0.03199
1790595393.5627234,-0.0125,0.00978,-1.00238,0.00306,0.0093,-0.005
1790595393.768262,-0.01386,0.00642,-1.00077,0.00534,1e-05,0.00344
1790595393.7821872,-0.00826,0.00663,-1.00161,0.00628,0.00371,0.00579
1790595393.8591888,0.05393,0.19407,-0.99767,-0.00691,0.00724,-0.49694
1790595393.947422,0.00185,0.02434,-0.98885,0.0049,0.01361,-0.58399
1790595394.07489,-0.00241,0.00218,-1.00223,0.00635,0.00924,-0.72142
1790595394.1828325,0.01897,0.04216,-0.99366,0.02307,-0.00051,-0.74127
1790595394.2388287,-0.00585,-0.00583,-1.01332,0.00736,0.00113,-0.76782
1790595394.398394,-0.0044,0.04244,-1.00095,-0.01023,0.0091,-0.84637
1790595394.4636781,-0.01381,-0.00874,-1.01038,0.00298,0.00592,-0.7383
1790595394.6202524,0.0072,0.00608,-1.00021,-0.00118,0.00739,-0.74704
1790595394.6828082,-0.01899,-0.02494,-1.01479,0.01038,-0.00822,-0.75762
1790595394.7874272,-0.00043,0.03678,-1.00274,0.0087,0.00151,-0.81505
1790595394.8637486,0.00529,0.02737,-0.99752,0.00124,0.0172,-0.78831
1790595395.017581,-0.01368,-0.04594,-0.99621,0.00088,0.00708,-0.75719
1790595395.137822,0.00964,0.03656,-1.00411,0.0354,-0.01085,-0.83254
1790595395.2027245,-0.01306,-0.00281,-1.00638,0.00435,-0.00809,-0.743
1790595395.278469,-0.00616,0.0086,-1.0094,0.01756,0.00101,-0.85074
1790595395.4025426,-0.00081,0.02005,-0.98818,-0.00462,0.01245,-0.75267
1790595395.5178232,0.00213,-0.02792,-0.99409,0.00069,0.02227,-0.68371
1790595395.6328578,-0.03498,-0.04354,-0.99962,0.00421,0.01063,-0.54182
1790595395.68046,-0.00409,0.01713,-0.9982,0.00094,0.00819,-0.53643
1790595395.7976916,-0.01829,0.03266,-0.99633,0.00401,0.00492,-0.28213
1790595395.8783772,-0.01433,-0.04903,-1.00328,0.01981,0.01436,-0.46055
1790595395.9829526,0.01448,-0.00651,-1.0009,0.01091,0.01272,-0.28632
1790595396.1576254,-0.02594,0.02081,-1.00462,0.00027,-0.00105,-0.23968
1790595396.2192793,-0.01816,0.03948,-1.00221,0.00627,0.00323,-0.20635
1790595396.3374653,-0.00263,0.02862,-1.00128,0.00477,0.00109,-0.21187
1790595396.400733,-0.01277,0.01416,-1.00111,0.00365,0.00463,-0.19188
1790595396.5025446,0.00374,-0.00556,-1.00353,0.01191,0.00663,-0.15731
1790595396.7028086,-0.02369,-0.0058,-1.00178,0.0082,0.00308,0.02263
1790595396.8603258,-0.01688,-0.00467,-1.00206,0.00572,0.0061,0.01252
1790595396.9074922,-0.00907,0.00026,-0.99998,0.00235,0.00528,-0.00473
1790595397.1076148,-0.00263,0.02519,-0.9992,0.00425,0.01479,-0.00381
1790595397.1076148,-0.00641,0.0091,-1.00044,0.00492,0.00627,-0.01772
1790595397.3076293,-0.00713,0.0169,-1.00209,0.00354,0.00069,-0.02923
1790595397.3198965,-0.00363,0.0197,-1.00129,0.00341,0.00414,-0.02843
1790595397.517867,-0.00406,0.02612,-1.00454,0.00325,0.0066,-0.03268
1790595397.5226848,-0.02501,-0.02089,-1.00478,0.00601,0.00747,0.0344
1790595397.6425626,-0.01652,-0.01024,-1.00043,0.00583,0.00677,0.02474
1790595397.7245762,-0.01142,-0.00862,-1.00083,0.00617,0.0059,0.01148
1790595397.8728027,-0.01405,0.00014,-1.00193,0.00488,0.00339,-0.00102
1790595397.9424317,0.09792,-0.00453,-0.99981,0.00021,0.02779,-0.00659
1790595398.134221,0.20296,0.00993,-0.96976,-0.00162,0.04065,0.1353
1790595398.141471,-0.07522,-0.01065,-0.98174,-0.01237,-0.03367,0.03848
1790595398.3375363,-0.10484,0.0119,-1.0035,8e-05,0.01231,0.01227
1790595398.3427756,-0.00766,0.00423,-0.99817,-0.01455,0.02302,0.00854
1790595398.5419424,0.06443,0.01111,-1.00147,0.00998,0.03204,-0.01258
1790595398.7475164,-0.06593,-0.01156,-1.00639,0.03126,-0.02503,0.03195
1790595398.7629879,-0.03478,0.00547,-0.96843,-0.03013,0.03878,0.00227
1790595398.8776875,0.00572,0.00982,-0.97692,0.00743,0.04325,-0.0
1790595398.9577355,0.03119,0.03294,-0.9792,0.00543,0.05753,0.02661
1790595399.1487646,-0.00187,-0.00595,-1.01,-0.0213,0.04894,-0.02438
1790595399.1632607,-0.02592,0.00245,-1.00989,0.00056,-0.0222,0.00801
1790595399.3578815,-0.01084,0.04295,-1.00949,0.02518,0.02115,-0.01108
1790595399.5680044,-0.01154,0.0084,-0.99581,0.00375,-0.00573,-0.01469
1790595399.5680044,-0.01226,0.02019,-0.96809,0.0115,0.01458,0.00135
1790595399.6576886,-0.01169,-0.00034,-0.99615,-0.02079,0.01072,0.01627
1790595399.7826667,-0.10992,0.00524,-0.98368,-0.01496,0.00155,0.00905
1790595399.8977323,-0.18755,-0.00235,-1.00756,0.00939,0.00452,0.00144
1790595400.1795263,-0.00089,0.00692,-1.002,0.0047,0.02042,-0.00724
1790595400.1825504,0.02666,0.00774,-1.00059,0.01278,-0.00081,-0.00343
1790595400.3574052,-0.08662,0.00042,-1.00539,0.0312,-0.01658,0.00669
1790595400.382486,-0.06884,0.01904,-1.00195,0.00718,0.0027,-0.00463
1790595400.5874345,-0.04455,0.00516,-1.00192,0.00221,0.01407,0.00129
1790595400.791967,-0.02776,0.00258,-1.00286,0.00391,0.00657,-0.00346
1790595400.8024495,-0.02978,0.00678,-1.0013,0.0088,0.00366,0.00129
1790595400.9221773,-0.01036,0.00725,-0.99978,0.0038,0.00257,0.00183
1790595400.9808867,-0.00381,0.00648,-1.00033,0.00457,0.0037,0.00014
1790595401.2026086,-0.00817,0.00841,-1.00195,0.00188,0.00425,0.00111
1790595401.3375697,-0.01137,0.00903,-1.00081,0.00383,0.00138,0.0011
1790595401.3416476,-0.01073,0.00543,-1.00249,0.00235,0.00546,0.00037
1790595401.4075875,-0.00977,0.00864,-1.00199,0.00439,0.00437,0.00162
1790595401.533633,-0.01577,0.01474,-1.00201,-0.00152,0.00255,-0.01039
1790595401.6124585,-0.01428,-0.00497,-1.0002,0.00761,0.00323,0.0175
1790595401.797575,-0.00794,0.00717,-0.9988,0.00185,0.01041,0.0233
1790595401.8017304,-0.00726,0.01616,-1.00411,0.00366,0.00503,-0.00616
1790595401.9181235,-0.00846,0.016,-1.00202,0.00657,0.00071,-0.01521
1790595402.028508,-0.01675,0.02172,-1.00159,0.00346,0.00499,-0.00304
1790595402.2275379,-0.01123,0.00223,-1.00312,0.00374,0.00134,0.00108
1790595402.2376995,-0.00746,0.00721,-1.00304,0.00426,0.00278,-0.00172
1790595402.4326994,-0.01171,0.00772,-1.00057,0.00734,-0.00069,-0.00081
1790595402.6024134,-0.01171,0.01391,-1.00325,0.00473,0.00507,-0.00631
1790595402.6196358,-0.00826,0.01388,-1.00274,0.00474,0.00157,-0.00766
1790595402.8378737,-0.01469,0.02067,-1.00262,0.0048,0.00272,0.00597
1790595402.9396472,-0.01158,0.00461,-0.99952,0.0075,0.00346,0.0016
1790595403.0477288,-0.01054,0.00636,-1.00197,0.00345,0.00446,0.00316
1790595403.2528353,-0.01195,0.00865,-1.00133,0.00666,0.00428,0.00635
1790595403.262486,-0.02801,-0.00588,-1.00245,0.00963,0.00434,0.01366
1790595403.3574488,-0.00701,0.00931,-1.00261,0.00566,0.00553,0.00348
1790595403.4476376,-0.00546,0.01409,-1.00314,0.0032,0.00193,-0.00613
1790595403.6579,0.00539,0.02604,-1.0019,0.00311,0.00325,-0.01223
1790595403.6579,-0.01751,0.01117,-1.00198,0.00646,-0.00066,0.00369
1790595403.8777273,-0.0077,0.00475,-1.00089,0.00445,0.00458,0.0022
1790595403.8777273,-0.00933,0.00806,-1.00227,0.00318,0.00376,0.00185
1790595404.067468,-0.00868,0.00797,-1.00104,0.005,0.00497,0.00317
1790595404.0814168,-0.00973,0.00649,-1.00298,0.00814,0.00476,0.00084
1790595404.277767,-0.00738,0.00931,-1.00202,0.00375,0.002,-0.0013
1790595404.485529,-0.00974,0.00827,-0.99976,0.003,0.00205,0.00074
1790595404.6828887,-0.00746,0.0112,-1.00155,0.00688,0.00701,-0.00214
1790595404.68746,-0.00927,0.01066,-0.99985,0.00294,0.00241,-0.00502
1790595404.8879187,-0.01081,0.00854,-1.00199,0.00643,0.00077,-0.00156
1790595404.8879187,-0.00996,0.00937,-0.99966,0.00302,0.00548,0.0004
1790595404.9583216,-0.01055,0.00776,-0.99984,0.00198,0.00491,-0.00072
1790595405.100947,-0.01228,-0.01089,-1.00032,0.01086,0.00574,-0.0001
1790595405.2774396,-0.01286,0.00416,-1.00188,0.00169,0.00265,-0.0105
1790595405.5074012,-0.00722,0.01212,-1.00168,0.00693,0.00366,-0.02973
1790595405.7099974,-0.01267,0.00579,-0.99935,0.00428,0.00406,0.00804
1790595405.908996,-0.01886,0.00965,-1.00312,0.00509,-0.00057,0.00718
1790595406.0380998,-0.00556,0.03584,-1.00332,0.00364,0.00171,-0.02259
1790595406.1225886,-0.013,0.01287,-1.00225,0.00649,0.00408,-0.01453
1790595406.2477813,-0.00897,0.02002,-1.00018,0.00288,0.00194,-0.0147
1790595406.3026912,-0.00608,0.00756,-0.99997,0.00282,0.00358,-0.00671
1790595406.4429271,-0.10336,-0.22818,-1.01528,0.00232,0.01403,0.81318
1790595406.5281901,-0.00863,-0.03648,-0.99796,0.02911,0.00287,0.66306
1790595406.6055605,0.00294,0.00894,-1.00239,0.0082,-0.00732,0.69579
1790595406.7225828,-0.01678,-0.00453,-0.99019,0.02002,0.00702,0.80033
1790595406.8274853,-0.05631,-0.15698,-1.0155,0.02416,-0.03319,0.75316
1790595406.9478319,0.02529,0.15999,-1.00237,-0.02034,-0.00151,0.81355
1790595407.0009663,-0.01546,0.01591,-0.99712,0.01619,-0.01276,0.7445
1790595407.1225402,-0.01375,-0.04845,-1.00545,0.00633,-0.00264,0.77784
1790595407.2232783,-0.01491,-0.08535,-0.97976,0.02485,0.01048,0.7994
1790595407.3417535,-0.00286,0.05157,-1.00964,0.00409,-0.01652,0.6878
1790595407.4643345,-0.00073,0.05177,-0.9991,-0.00434,-0.01269,0.8257
1790595407.522747,0.02217,0.04898,-1.00178,0.00869,-0.0072,0.6832
1790595407.6424947,0.00527,0.00579,-1.00165,0.01152,-0.00048,0.77357
1790595407.7661695,-0.0212,-0.01876,-1.01771,-0.02333,-0.00516,0.80738
1790595407.819536,-0.0038,0.05238,-0.99649,0.01655,-0.00895,0.6995
1790595407.9422905,0.00802,0.05782,-0.98694,0.01618,0.01073,0.74716
1790595408.0485208,-0.00031,0.02627,-0.99637,0.01693,-0.00102,0.66768
1790595408.1373107,0.01556,0.09095,-0.99899,-0.00977,-0.00663,0.35928
1790595408.2581482,-0.02382,0.00208,-1.00137,0.00996,-0.00674,0.41857
1790595408.3675756,-0.00572,-0.00154,-1.00374,-0.00241,0.01635,0.47001
1790595408.4182208,-0.004,-0.022,-1.00263,0.00698,-0.00085,0.24202
1790595408.5422199,-0.00989,0.02707,-0.99622,0.01351,0.00536,0.21736
1790595408.6717963,-0.01343,-0.00445,-1.00181,-0.00193,-8e-05,0.2714
1790595408.7824914,-0.03511,0.00187,-0.99998,0.00243,0.00162,0.22566
1790595408.878172,-0.01429,0.03459,-1.00034,0.00379,0.00562,0.18492
1790595408.9587615,-0.01153,0.01204,-1.00372,0.01522,0.00984,0.19348
1790595409.1875162,-0.00585,0.02397,-1.00186,0.00461,0.00161,-0.00446
1790595409.3477252,-0.00614,0.02164,-0.99973,0.00499,0.00591,-0.00153
1790595409.3477252,-0.0063,0.01721,-1.00186,0.00748,0.00479,0.00668
1790595409.5993555,-0.00929,0.00478,-0.9999,0.00548,0.00387,0.00667
1790595409.602823,-0.01061,0.01837,-0.99998,0.00774,0.00393,0.00879
1790595409.7991161,-0.01287,0.00479,-1.00032,0.00663,0.00413,0.02382
1790595409.9794176,-0.01348,-0.00014,-1.00014,0.01014,0.00466,0.03303
1790595409.9794176,0.00341,0.03032,-1.00264,0.00319,0.0067,-0.00276
1790595410.0908968,-0.00041,0.02447,-1.00353,0.00487,0.00591,-0.01759
1790595410.2087736,-0.00719,0.02543,-1.00124,0.00382,0.00618,-0.01112
1790595410.4172893,0.26619,0.01313,-1.01509,0.0111,0.02585,0.00259
1790595410.4877043,0.01019,-0.02016,-1.00497,0.01997,-0.08579,0.04717
1790595410.6326838,-0.14752,0.02441,-1.00352,-0.01513,-0.01888,-0.01561
1790595410.82757,0.05339,0.0163,-1.01365,0.01491,0.00377,-0.01109
1790595410.9027488,0.08903,0.01178,-1.00673,0.01993,-0.01589,-0.02442
1790595410.9925766,-0.02304,-0.00051,-1.00984,-0.03251,-0.01884,0.02826
1790595411.237519,-0.06954,0.02277,-0.98246,0.01389,0.01628,-0.01815
1790595411.237519,-0.03365,0.02309,-1.00638,-0.01075,0.03823,-0.00831
1790595411.3082259,0.0395,0.0093,-0.98587,-0.00212,0.05553,-0.00435
1790595411.3975909,0.04045,0.02847,-1.02265,0.01601,0.00668,-0.03713
1790595411.8511205,-0.02088,-0.032,-1.01454,0.05166,-0.00292,-0.07295
1790595411.8511205,-0.0198,-0.08507,-0.99627,0.00176,-0.00476,0.0163
1790595411.8511205,0.01405,0.0661,-1.01534,0.0171,-0.00881,-0.02872
1790595411.9325404,0.00688,0.05988,-0.99444,-0.00165,0.01935,-0.00618
1790595412.057673,0.0093,0.01204,-1.00373,0.00835,-0.01183,-0.01649
1790595412.2578256,-0.09183,-0.00106,-0.99514,-0.02914,0.03524,-0.00727
1790595412.4429476,0.08125,0.01457,-0.98458,0.00622,0.01175,0.02751
1790595412.6677241,-0.04235,0.01371,-0.98865,-0.01259,-0.05117,-0.00612
1790595412.6677241,-0.17217,0.03229,-1.00905,0.02303,-0.03771,-0.08271
1790595412.877548,-0.00793,0.00282,-1.00239,0.00033,0.00603,-0.00187
1790595412.9982574,-0.00532,0.01373,-0.99904,0.00589,0.00611,0.00413
1790595413.0929189,-0.00014,0.00896,-1.0021,0.00504,0.0039,0.00844
1790595413.2876878,-0.00907,0.0108,-1.00176,0.00625,0.00415,0.00947
1790595413.4525962,-0.00559,0.01492,-1.00199,0.00751,0.00158,0.00864
1790595413.4626634,-0.00555,0.01941,-1.00074,0.00594,-0.00096,-0.0014
1790595413.622535,0.00391,0.02112,-1.00328,0.00593,0.01187,0.00715
1790595413.6981175,-0.00568,0.01131,-1.00075,0.00478,0.0016,-0.0036
1790595413.8829756,-0.00413,0.02722,-1.00203,0.00421,0.00332,-0.0102
1790595413.8829756,-0.00591,0.01187,-1.00062,0.00431,0.00213,-0.00614
1790595414.013657,-0.00138,0.02141,-1.00319,0.00401,-0.00363,-0.02027
1790595414.107957,-0.01678,0.01294,-1.00181,0.00689,0.00256,0.00628
1790595414.3076255,0.00074,0.02369,-1.00057,0.00577,0.00417,-0.00986
1790595414.515568,-0.00621,0.0151,-1.0018,0.00328,0.00299,-0.00276
1790595414.5175962,-0.0124,-0.0108,-1.00245,0.00625,0.00928,0.03469
1790595414.6826267,-0.01219,-0.02909,-1.00197,0.00237,0.00294,0.01851
1790595414.9326038,0.00255,0.0277,-0.99948,0.0069,0.00329,-0.0172
1790595415.0277417,-0.0075,0.00871,-1.00101,0.00429,0.00308,0.00264
1790595415.1277285,-0.00756,0.01744,-1.0011,0.00598,-0.00048,0.00379
1790595415.3313794,-0.00495,0.01606,-1.00081,0.00631,0.00534,0.00238
1790595415.3313794,-0.00367,0.00675,-0.99955,0.00667,0.00675,0.01821
1790595415.5213084,-0.01316,-0.00069,-1.00116,0.00581,0.00033,0.02858
1790595415.747515,-0.00738,0.02545,-1.00114,0.00196,0.00479,-0.01259
1790595415.9493968,-0.00411,0.01259,-1.00232,0.00436,0.00079,0.00465
1790595416.0291543,-0.00401,0.02095,-1.00119,0.00583,0.00364,-0.00477
1790595416.1511724,-0.00851,0.01305,-1.00116,0.00814,0.00651,0.00496
1790595416.3588626,-0.00615,0.01313,-1.00281,0.00451,0.00448,0.00049
1790595416.5610473,-0.00807,0.01789,-1.0013,0.00635,0.00434,9e-05
1790595416.5610473,-0.00434,0.01412,-1.00265,0.00784,0.0032,0.00388
1790595416.7685366,-0.00604,0.00887,-1.00259,0.0034,0.00458,0.00479
1790595416.9814754,-0.00517,0.01904,-1.00281,0.00697,0.00298,-0.0007
1790595417.0476418,-0.00529,0.01601,-1.00281,0.00542,0.00712,0.00304
1790595417.177572,-0.00843,0.01339,-1.00208,0.00699,-0.00157,0.00377
1790595417.367631,-0.00011,0.01457,-1.00293,0.00381,0.00583,-0.00176
1790595417.5877695,-0.01055,0.00817,-1.00087,0.00528,0.0059,-0.00733
1790595417.7907677,-0.00603,0.00603,-1.00157,0.00391,0.00591,0.0052
1790595417.7907677,-0.00774,0.02123,-1.00185,0.00318,0.00285,-0.00331
1790595417.9976263,-0.00629,0.01808,-1.00285,0.00461,0.00396,-0.00244
1790595417.9992247,-0.00629,0.01808,-1.00285,0.00461,0.00396,-0.00244
1790595418.117841,-0.00631,0.00844,-0.99856,0.00228,-0.00289,0.01904
1790595418.1379812,-0.00269,0.01981,-1.00042,0.00553,0.0048,-0.00789
1790595418.327601,-0.00866,0.01674,-0.99951,0.00467,0.00504,-0.00111
1790595418.3385315,-0.00526,0.01299,-1.00218,0.00542,0.00399,0.00375
1790595418.4397867,-0.00986,-0.01997,-0.99062,0.02247,-0.01276,0.79172
1790595418.5618868,-0.00127,-0.03293,-1.01025,-0.00405,0.02148,0.63084
1790595418.660545,0.00134,0.02665,-0.99265,-0.00151,0.00493,0.7523
1790595418.7356095,-0.01151,-0.01877,-1.00482,0.00407,-0.01561,0.78034
1790595418.8391972,0.01904,0.00911,-1.00551,-0.01407,-0.00661,0.72846
1790595418.9578884,0.00027,-0.01129,-1.0036,0.00305,0.00416,0.75075
1790595419.062942,-0.01333,0.01361,-0.98761,0.01972,0.01102,0.79236
1790595419.1790035,0.01313,0.03277,-1.00479,-0.0024,-0.02108,0.76378
1790595419.2924154,0.00985,0.00663,-1.00145,0.01294,-0.00403,0.79745
1790595419.3978484,-0.00324,-0.01068,-0.99864,-0.00193,-0.00877,0.81882
1790595419.5077379,0.0084,0.0075,-0.99526,0.00778,0.01174,0.75926
1790595419.6294334,0.00661,0.0567,-1.00297,0.00375,0.0061,0.67468
1790595419.6876357,0.00385,0.03628,-1.00021,0.01621,-0.0201,0.78369
1790595419.7976108,0.03551,0.0003,-0.99998,0.01145,-0.00808,0.74247
1790595419.912628,-0.00208,-0.00989,-0.99042,-0.02153,0.02206,0.82823
1790595419.9776692,0.00551,0.03729,-1.01356,-0.00252,-0.01634,0.74447
1790595420.0777593,0.0115,0.03125,-0.9905,0.02158,0.02063,0.76628
1790595420.2027931,0.00327,0.00112,-1.00816,0.01438,-0.02117,0.77314
1790595420.2625215,0.01171,-0.01941,-0.99101,0.01014,0.01086,0.77549
1790595420.3976984,0.01322,0.0186,-1.01714,-0.09981,-0.02236,0.79565
1790595420.4680295,0.014,0.05084,-0.99176,0.00293,-0.00675,0.71063
1790595420.577985,0.01208,0.02783,-0.98774,0.01811,0.00267,0.75508
1790595420.75256,0.00347,0.00066,-0.99815,-0.01035,-0.00215,0.81452
1790595420.7975538,0.00011,-0.0205,-1.0081,0.00618,-0.02854,0.79691
1790595420.918157,0.02967,0.03148,-0.99674,0.00654,-0.00824,0.736
1790595421.0475967,0.00595,0.0342,-1.01611,0.00533,-0.02206,0.75141
1790595421.0877705,-0.01372,0.00017,-0.99298,0.00341,0.00939,0.77765
1790595421.1782331,0.01865,0.00685,-1.00048,0.00388,-0.00799,0.77611
1790595421.2828007,-0.00391,0.00642,-1.00919,-0.00879,-0.00887,0.85412
1790595421.4079456,-0.00354,0.00339,-0.99765,-0.00149,-0.00679,0.80469
1790595421.4795518,0.00757,0.01152,-1.01202,0.00612,0.00068,0.73642
1790595421.5978906,-0.01796,0.01376,-0.99758,0.00234,-0.00522,0.74281
1790595421.7383273,0.00469,0.02853,-1.00153,-0.00408,-0.00351,0.75197
1790595421.798596,0.01453,-0.02245,-0.9838,0.03059,0.03182,0.78577
1790595421.8978117,-0.01431,-0.00233,-0.99156,0.01464,-0.00375,0.82579
1790595422.0375497,-0.00928,0.02315,-1.01987,-0.00222,0.00048,0.68966
1790595422.0982249,0.0319,0.07235,-1.00195,-0.01819,-0.01033,0.60003
1790595422.2225926,-0.0005,0.00193,-1.00746,-0.00183,0.00341,0.58735
1790595422.3281848,0.01901,0.06197,-0.99794,0.00989,-0.00057,0.35635
1790595422.502677,-0.0184,0.05854,-1.00414,-0.00899,0.02342,0.10553
1790595422.7112887,-0.0112,0.02213,-1.0042,0.00129,0.00255,0.02342
1790595422.7183127,0.00258,0.04142,-1.00147,0.00141,0.00378,-0.00764
1790595422.915573,-0.00781,0.02119,-1.00123,0.00152,0.00123,-0.01182
1790595422.9175782,0.00195,0.01996,-1.00136,0.00522,0.01261,-0.00161
1790595423.1027572,-0.00111,0.01659,-1.00202,0.00034,0.0041,-0.02132
1790595423.1073754,-0.00634,0.01417,-1.00258,0.00506,0.00418,-0.01092
1790595423.327333,-0.00878,0.01317,-1.00235,0.00495,0.00226,-0.009
1790595423.3425126,-0.00432,0.01637,-1.00345,0.00718,0.00664,-0.01596
1790595423.527712,-0.00376,0.01909,-1.00234,0.00312,0.00442,-0.00941
1790595423.5400114,-0.00508,0.01398,-1.00204,0.00638,0.00468,0.00014
1790595423.7278523,-0.00851,0.00346,-1.00175,0.00812,0.00225,0.01488
1790595423.7413015,-0.01464,-0.00516,-1.00115,0.00986,0.00469,0.03469
1790595423.842447,0.01426,0.02106,-1.00201,0.00876,0.01054,0.01172
1790595423.9362898,-0.01107,0.00934,-1.00158,0.00406,0.00339,0.00487
1790595424.107539,-0.00625,0.0004,-0.99934,0.00668,0.00275,0.01798
1790595424.1724198,-0.01254,-0.00405,-1.00029,0.00509,0.00437,0.02353
1790595424.3428502,0.1334,0.0014,-1.00787,0.00559,0.00745,0.08295
1790595424.3477705,0.22292,0.01671,-1.01228,0.02865,-0.04768,0.14849
