unix_timestamp,acc_x,acc_y,acc_z,gyro_x,gyro_y,gyro_z
1790616395.820107,0.00152,0.01065,-0.99856,0.00068,0.0014,0.00391
1790616395.920167,-0.0018,0.01137,-0.99796,0.00275,0.00107,0.00324
1790616396.040101,0.00062,0.01068,-0.9979,0.00147,0.00231,0.00486
1790616396.233212,-4e-05,0.01014,-0.99799,0.00293,0.00063,0.00421
1790616396.242097,-0.00057,0.0114,-0.99814,0.00152,0.00027,0.00244
1790616396.376138,-0.00018,0.01011,-0.99848,0.0038,0.00202,0.00415
1790616396.624911,0.00791,0.01854,-0.99824,0.00529,-0.00026,0.00246
1790616396.6267588,-0.00072,0.01695,-0.99758,0.00446,0.00097,0.00182
1790616396.64198,-0.00036,0.00788,-0.99799,0.00227,0.00085,0.00184
1790616396.7645922,-0.00344,0.00963,-0.998,0.0027,0.00234,0.00875
1790616396.854624,0.00076,0.01086,-0.99721,0.00037,0.00028,0.00358
1790616397.135355,-0.0004,0.01438,-0.99801,0.00484,0.00282,0.00138
1790616397.1968052,-0.00068,0.01038,-0.99788,-0.00017,-0.0001,0.00666
1790616397.202178,-0.00029,0.01007,-0.99747,0.00367,0.0007,0.00259
1790616397.375503,0.00046,0.01248,-0.9977,0.00377,0.00346,0.00196
1790616397.401085,0.00012,0.01172,-0.99869,0.00234,0.00131,0.00134
1790616397.533958,-1e-05,0.01205,-0.99778,0.0036,0.00302,0.0027
1790616397.7097652,-0.00057,0.01234,-0.99781,0.00181,0.00079,0.00395
1790616397.72233,0.00088,0.01126,-0.9992,0.00164,0.00046,0.00363
1790616397.888937,-0.00125,0.01121,-0.99766,0.00459,0.00066,0.00301
1790616397.920973,-0.00032,0.01036,-0.99651,0.00233,0.00264,0.00561
1790616398.0299342,-0.00077,0.01151,-0.99817,0.00262,0.00184,0.00021
1790616398.1411572,0.00076,0.01138,-0.99878,0.00258,-0.00044,0.00159
1790616398.2891,0.0,0.01124,-0.99626,0.00287,0.00095,0.00396
1790616398.463231,4e-05,0.01048,-0.997,0.00204,0.00125,0.0019
1790616398.466061,0.00116,0.00984,-0.99764,0.00117,0.0032,0.00474
1790616398.587658,0.00046,0.01084,-0.99932,0.0016,0.00105,0.0053
1790616398.762472,0.00134,0.01307,-0.99974,-0.00138,0.00127,0.00065
1790616398.7743979,0.00074,0.01305,-0.99764,0.001,0.00117,0.00268
1790616398.9449558,0.00062,0.01035,-0.99771,0.00177,9e-05,0.00163
1790616398.9809868,0.00172,0.01118,-0.99939,0.00117,-0.00073,0.0035
1790616399.081046,0.00094,0.01358,-0.99804,0.00472,0.00151,0.00258
1790616399.201186,0.00199,0.01161,-0.99919,0.00207,0.0001,0.00253
1790616399.321003,-0.0009,0.01134,-0.99845,0.00509,-0.00167,0.00374
1790616399.423033,0.00108,0.01284,-0.99896,0.00386,0.00118,0.00154
1790616399.541139,0.00178,0.01255,-0.99912,0.00345,0.00115,0.00122
1790616399.640994,-0.00058,0.01042,-0.99894,0.0044,0.00062,0.00429
1790616399.741374,0.00096,0.01269,-0.9997,0.00145,0.00216,0.00312
1790616399.861932,-0.00069,0.01245,-0.99835,0.00368,0.00504,0.00307
1790616399.9619899,0.00151,0.01212,-1.00047,0.00181,0.00087,0.00137
1790616400.080941,0.00158,0.01168,-0.99785,0.0039,0.00168,0.00166
1790616400.1811001,0.00074,0.01173,-0.99811,0.00317,0.00238,0.00209
1790616400.2812421,-0.00021,0.0114,-0.99784,0.00419,0.00151,0.00565
1790616400.400885,-0.00109,0.01108,-0.99833,0.00177,-0.00041,0.00151
1790616400.5013728,-0.00041,0.01051,-0.9971,0.00146,0.00218,0.00397
1790616400.601417,-0.00111,0.01053,-0.99821,0.00322,-0.00144,0.00094
1790616400.721226,-0.0006,0.01139,-0.99758,0.00228,0.00186,0.00329
1790616400.8407838,0.00049,0.01116,-1.00077,0.00278,0.00103,0.00538
1790616400.94116,-0.00055,0.01227,-0.99792,0.00224,0.00183,0.00356
1790616401.060917,0.00272,0.01315,-0.99859,0.00397,0.00219,0.00071
1790616401.160884,-0.00091,0.01247,-0.9986,0.00452,0.00427,0.00199
1790616401.260938,-0.00041,0.01039,-0.99746,0.00334,0.00138,0.00548
1790616401.361467,0.00118,0.01278,-0.99763,0.0013,-3e-05,0.00274
1790616401.480955,-0.00014,0.01062,-1.00009,0.00255,0.00102,0.00228
1790616401.5807822,0.00069,0.01186,-0.99841,0.00565,0.00201,0.00261
1790616401.6842802,0.00026,0.01176,-0.99788,0.00414,0.00029,0.00281
1790616401.800867,-0.00051,0.01002,-0.99782,0.00365,-0.00106,0.0039
1790616401.901602,-0.00074,0.0114,-0.99838,0.00419,0.00083,0.00312
1790616402.0014699,-0.00078,0.00992,-0.99759,0.00524,0.00069,0.00504
1790616402.121345,0.00045,0.0114,-0.99929,0.00305,-0.00049,0.00177
1790616402.221298,0.00052,0.01294,-0.99707,0.0032,-0.00033,0.00231
1790616402.3223941,-0.00031,0.01197,-0.99885,0.00264,0.00213,0.00349
1790616402.421819,-0.00213,0.01233,-0.99863,-0.0015,0.00186,-0.00013
1790616402.522867,0.00192,0.01216,-0.99878,0.00104,0.00169,0.00183
1790616402.64072,0.00117,0.01323,-0.99886,0.00172,-0.00026,0.0018
1790616402.740706,-0.02618,-0.07746,-0.99042,0.01101,0.00827,0.5245
1790616402.840829,-0.00028,-0.00897,-1.00192,0.02212,0.00466,0.40564
1790616402.9409091,0.04643,0.04728,-0.99594,-0.01303,-0.00017,0.43516
1790616403.041746,-0.02344,-0.04045,-0.99825,-0.00712,-0.00493,0.5513
1790616403.14123,-0.0223,0.02031,-0.98857,0.03639,0.01662,0.48017
1790616403.2613068,0.01556,0.00488,-0.99831,-0.00966,-0.00318,0.48552
1790616403.360874,0.05523,0.17475,-0.99307,-0.001,-0.03083,-0.01649
1790616403.46099,0.00975,0.03254,-0.99898,0.00239,0.00161,-0.01978
1790616403.5613492,0.00434,0.01848,-0.99958,0.00372,-0.00152,-0.0047
1790616403.6834922,-0.00289,0.00387,-0.99766,0.00504,-0.00084,0.00385
1790616403.7819278,-0.00648,0.00254,-0.99848,0.00273,0.00024,0.01375
1790616403.883792,0.0331,0.12161,-0.99586,0.01018,0.00656,-0.30181
1790616403.983076,0.01122,0.04413,-0.9918,0.01453,0.01228,-0.35757
1790616404.083172,-0.00777,-0.02811,-0.99866,-0.00549,0.01755,-0.32126
1790616404.1860218,0.00839,-0.0197,-1.00053,-0.00305,-0.00092,-0.33253
1790616404.282027,0.01309,0.04539,-0.99615,0.00072,0.00823,-0.30386
1790616404.400737,-0.00546,0.02948,-0.99584,0.00634,0.00689,-0.2901
1790616404.500986,-0.00746,-0.02568,-1.00016,0.00639,-0.00897,-0.17378
1790616404.6021109,-0.00139,0.04232,-0.99855,-0.00823,0.00576,-0.22283
1790616404.720742,0.00896,0.0159,-0.99904,0.00346,0.00222,-0.19753
1790616404.8212092,-0.00068,0.01538,-0.99924,0.00413,0.00368,-0.20009
1790616404.920948,-0.01465,0.01706,-0.999,0.00243,0.00014,-0.15658
1790616405.0218,-0.01307,-0.05172,-0.99773,0.00488,-0.00063,-0.02094
1790616405.120712,0.00103,-0.00448,-0.99994,0.00269,-0.00172,-0.00551
1790616405.22208,0.00803,0.02377,-0.99867,0.00257,0.00046,-0.02958
1790616405.3408,0.00584,0.03345,-0.99875,0.00076,-0.00037,-0.0338
1790616405.441086,0.00457,0.03096,-0.99905,0.00581,0.00358,-0.02199
1790616405.5409338,0.00497,0.02603,-0.99904,0.00126,0.00038,-0.00652
1790616405.640935,0.00041,0.0149,-0.99986,0.00264,0.00159,0.01955
1790616405.740811,0.00667,0.03331,-0.99812,0.00175,-0.00033,-0.0364
1790616405.840949,0.00309,0.0288,-0.99886,0.00434,-0.00057,-0.00731
1790616405.961386,0.00037,0.00984,-0.99878,0.00479,0.0017,0.01768
1790616406.060975,-0.00511,0.00114,-0.99784,0.00543,9e-05,0.03402
1790616406.160819,-0.00676,-0.00772,-0.99847,0.00201,0.00283,0.04073
1790616406.260711,-0.00856,-0.00887,-0.99892,0.0027,0.00206,0.037
1790616406.3611462,-0.0083,-0.00541,-0.99965,0.00619,0.00386,0.01978
1790616406.461014,-0.00565,0.00127,-0.99753,0.00081,0.00181,0.00215
1790616406.583306,0.00587,0.00344,-0.99947,0.00193,0.00017,-0.00253
1790616406.682701,-0.01002,0.01225,-0.99926,0.00093,0.00445,-0.0072
1790616406.801311,0.00309,0.02325,-0.99882,0.00164,-0.00275,-0.0314
1790616406.9011571,0.01087,0.03201,-0.99624,0.00234,-0.00067,-0.03299
1790616407.00077,0.00787,0.03045,-0.99868,0.00486,-0.00011,-0.02298
1790616407.100953,0.00607,0.03243,-0.99931,0.0027,0.00046,-0.02569
1790616407.201142,0.01164,0.0349,-0.99963,0.00078,0.00341,-0.05742
1790616407.3319721,0.00865,0.02558,-0.99975,0.00523,0.00695,-0.00965
1790616407.420856,6e-05,0.01414,-0.99978,0.00142,0.00221,0.00995
1790616407.520923,-0.00266,0.00693,-1.00075,0.00221,-0.00408,0.02806
1790616407.641589,-0.00294,0.02432,-1.00099,0.00111,0.00157,-0.00063
1790616407.7422569,-0.00406,-0.00696,-0.99993,0.00798,0.00044,0.0427
1790616407.860915,-0.00958,-0.01179,-0.99953,0.00381,0.00451,0.03743
1790616407.960992,-0.00894,-0.00558,-0.99825,0.00462,0.00704,0.01476
1790616408.060707,-0.0028,0.00863,-1.00046,0.00441,0.00054,-0.00995
1790616408.1822941,0.01832,0.01872,-0.99873,0.00145,-0.00089,-0.03293
1790616408.280718,0.00337,0.03109,-0.99957,0.00162,0.00355,-0.00702
1790616408.3817952,0.00405,0.01773,-0.99813,0.0047,0.0011,0.01392
1790616408.4814699,0.00059,0.00609,-0.99759,0.00595,0.00362,0.02747
1790616408.601255,-0.00818,-0.00421,-0.99852,0.00429,-5e-05,0.04035
1790616408.70096,-0.01036,-0.01028,-0.99987,-0.00026,0.00161,0.04075
1790616408.801261,0.01,0.00349,-0.99865,0.00219,0.00226,0.00523
1790616408.901206,-0.00748,0.00568,-0.9982,0.00543,0.00182,-0.00386
1790616409.001236,0.0013,0.02144,-0.99853,0.00312,0.00203,-0.03365
1790616409.102092,0.00699,0.02701,-0.99938,0.00082,0.00124,-0.04113
1790616409.1997921,0.00733,0.03471,-0.9992,-0.00125,0.00056,-0.04956
1790616409.321684,0.00999,0.032,-1.00246,0.0052,0.00209,-0.03004
1790616409.421986,0.00578,0.02607,-0.99871,0.00537,0.00509,-0.00893
1790616409.5229409,0.00047,0.01734,-1.00072,0.00303,0.00056,0.00593
1790616409.642596,-0.00106,0.00906,-0.99899,0.00242,0.00028,0.02507
1790616409.742196,-0.00501,0.00371,-0.99956,0.0041,0.00256,0.03091
1790616409.841721,-0.00692,-0.00619,-1.00035,0.00404,0.00278,0.03798
1790616409.942136,-0.01128,-0.00909,-0.99853,0.00162,-0.00069,0.04015
1790616410.0431612,-0.00975,-0.01086,-0.99983,0.0074,0.00492,0.02886
1790616410.1423638,-0.0074,-0.00176,-0.99818,0.00285,-0.00092,-0.00048
1790616410.2428422,-0.00808,0.00484,-0.99819,0.00704,-0.0009,-0.00612
1790616410.382782,-0.0208,-0.03099,-0.99624,0.00937,0.00531,0.04891
1790616410.501101,-0.00517,-0.0041,-0.99892,0.00415,0.00377,0.04011
1790616410.582824,-0.00605,-0.00717,-0.99804,0.0048,0.00434,0.03352
1790616410.683787,-0.00831,-0.00722,-1.0,0.00505,0.00295,0.02687
1790616410.783419,-0.00644,-0.00549,-0.9992,0.00435,0.00404,0.01016
1790616410.941628,-0.00809,-0.00709,-0.99933,0.00222,0.00178,0.01045
1790616411.06333,-0.00771,-0.01114,-1.00044,0.00707,0.00343,0.0265
1790616411.0835671,-0.00754,-0.00729,-0.99966,0.00655,0.00246,0.01741
1790616411.20802,-0.00925,-0.00486,-0.99734,0.00464,-0.00243,0.01659
1790616411.3977668,-0.00748,-0.00454,-0.9984,0.00312,-0.0017,0.00507
1790616411.402307,-0.01166,0.01141,-0.99831,0.00012,0.00234,-0.0124
1790616411.5822039,0.00176,0.00594,-0.99855,-0.0001,-0.00226,-0.0299
1790616411.7010581,0.00529,0.02076,-0.99705,0.00506,-0.00213,-0.0287
1790616411.723604,0.00158,0.02593,-0.99765,0.00375,0.00132,-0.03314
1790616411.879712,0.01693,0.04256,-1.00472,0.01323,0.02759,0.91705
1790616412.045259,0.00475,-0.00862,-1.00778,-0.00139,-0.01161,0.85068
1790616412.060383,-0.00847,-0.01575,-1.02073,-0.00083,-0.02237,0.95463
1790616412.219059,0.01087,0.01147,-0.98996,0.01221,-0.01219,1.00235
1790616412.24518,0.01694,-0.00043,-0.99082,-0.01927,-0.00172,0.99926
1790616412.385186,0.03233,0.03041,-1.01024,-0.00932,-0.02367,0.97615
1790616412.559391,-0.01308,-0.02445,-1.01115,-0.01402,-0.02286,1.1251
1790616412.566166,-0.00053,-0.00443,-0.97558,0.05212,0.00046,1.04322
1790616412.722382,0.01764,0.00314,-0.98984,0.03116,-0.00532,1.01602
1790616412.870328,0.01535,0.01699,-0.99518,-0.05134,0.00574,1.03209
1790616412.903703,-0.00891,-0.00317,-1.02176,0.02229,-0.0336,1.07207
1790616413.123159,-0.00736,-0.01344,-1.0144,-0.00939,0.00263,1.08136
1790616413.132206,0.01709,0.02106,-1.00057,0.00313,-0.01271,0.82647
1790616413.303761,0.00258,0.041,-1.0058,0.02105,-0.00978,0.70225
1790616413.325553,6e-05,0.00619,-0.99915,0.02525,-0.01344,0.63841
1790616413.456906,-0.00598,-0.0277,-0.99535,0.01865,0.01051,0.25538
1790616413.60438,-0.00469,-2e-05,-0.9986,0.00287,-0.00822,0.39191
1790616413.77893,-0.00601,0.00682,-0.99572,0.00735,0.0023,0.27431
1790616413.783249,-0.01985,-0.00898,-1.00099,0.00908,-0.01016,0.2249
1790616413.844368,-0.01232,0.01545,-0.9943,0.00191,0.00103,0.21146
1790616413.967958,-0.0001,0.02368,-1.00264,0.00127,0.00167,0.03141
1790616414.065057,0.00232,0.02074,-0.99794,0.00147,0.00404,-0.00079
1790616414.167757,0.00071,0.02306,-0.99827,0.00379,-0.00153,-0.01697
1790616414.274166,0.00364,0.03147,-0.99847,3e-05,-0.00249,-0.05574
1790616414.364914,-0.00207,0.01696,-0.99888,0.0084,-0.00415,-0.00843
1790616414.4690108,-0.00368,0.02149,-0.99934,0.0038,0.00034,-0.02202
1790616414.583972,-0.00434,0.01826,-0.99851,0.00494,0.00289,-0.01158
1790616414.683917,-0.00751,0.00782,-0.9993,0.00197,0.00207,-0.0066
1790616414.803874,-0.0161,-0.00359,-0.99864,0.00595,0.00584,0.01846
1790616414.923685,-0.00217,0.0231,-0.9968,0.00177,-0.0001,-0.01438
1790616415.024657,-0.00096,0.01906,-0.99711,0.00219,-0.00016,-0.01849
1790616415.123894,-0.00245,0.01675,-0.99866,0.00377,0.00015,-0.01501
1790616415.243702,-0.00503,0.00769,-0.99918,0.00368,0.0038,-0.00093
1790616415.3444538,0.17879,0.00495,-0.98999,0.01379,0.03331,0.03824
1790616415.463806,0.23416,0.0544,-0.99565,-0.00799,-0.01004,-0.07774
1790616415.569151,0.02813,-0.01207,-1.01195,0.02947,-0.05131,0.01973
1790616415.668013,-0.12765,0.00459,-0.96964,-0.02573,0.00645,-0.0125
1790616415.770823,-0.09787,-0.00691,-0.98699,0.00748,0.01221,-0.01473
1790616415.8848588,0.04327,0.01819,-0.97999,0.03585,0.00498,-0.0157
1790616415.985122,0.07327,0.01975,-0.99287,-0.01123,0.00045,-0.01346
1790616416.085321,0.00568,0.00216,-1.00739,-0.0382,0.01216,0.00011
1790616416.204588,-0.07656,0.00949,-1.02962,-0.00626,-0.02275,-0.01607
1790616416.325396,-0.0447,-0.01134,-1.00433,0.03307,-0.00877,0.03947
1790616416.424688,0.03463,0.00769,-0.98448,-0.007,0.02332,0.01631
1790616416.524717,-0.0161,0.02879,-0.98838,0.02777,0.02281,-0.01199
1790616416.624717,-0.03705,0.01002,-1.01803,0.01709,-0.005,0.01004
1790616416.744664,-0.02122,-0.01255,-1.00042,0.00407,-0.0249,-0.02327
1790616416.8445618,-0.03712,-0.00526,-1.01047,-0.00145,-0.01743,-0.01626
1790616416.9449458,-0.05435,0.01403,-1.00159,-0.00932,-0.00385,-0.00841
1790616417.045131,-0.08392,0.00424,-0.98697,0.02546,0.00187,-0.00427
1790616417.164896,-0.03804,0.01901,-0.99442,-0.0018,0.01599,0.02484
1790616417.284555,0.00374,0.00802,-0.99813,0.00441,-0.00031,-0.04377
1790616417.385483,-0.00952,-0.0161,-0.99657,0.00108,0.00324,0.06282
1790616417.487016,-0.02896,0.02311,-1.00278,-0.00255,0.00171,-0.06959
1790616417.589059,-0.02786,0.0446,-1.00022,0.00526,-0.00379,-0.01408
1790616417.687973,0.03175,0.02132,-0.99408,-0.00402,0.0068,-0.02108
1790616417.7890508,0.03025,0.00086,-1.00048,0.00644,-0.00238,-0.01359
1790616417.887042,-0.0283,0.03074,-1.00486,0.00243,-0.00193,0.00783
1790616417.987036,-0.02061,0.03447,-0.99562,0.00193,0.00063,-0.04388
1790616418.1066382,-0.02497,-0.00266,-0.99916,-0.00089,0.00192,0.04846
1790616418.207551,-0.03994,0.00333,-0.99738,0.00114,0.00324,0.0179
1790616418.32882,-0.01922,0.00947,-0.99659,0.0032,0.00249,0.00131
1790616418.429216,-0.00286,0.00777,-0.99934,0.00043,0.00148,0.00215
1790616418.5270588,-0.003,0.0075,-1.00014,0.00316,0.00047,0.00263
1790616418.629709,-0.00279,0.00619,-1.00011,0.00208,0.00139,0.00218
1790616418.7269802,-0.00197,0.00789,-1.00027,0.00177,0.00037,0.00545
1790616418.847795,-0.0055,0.00866,-0.99666,0.00289,0.0022,0.00097
1790616418.947422,0.00186,0.01412,-0.997,0.00329,-0.00251,-0.01523
1790616419.048297,0.00184,0.02101,-0.99859,0.00547,-0.00016,-0.02129
1790616419.147346,-0.0011,0.02166,-1.00061,0.002,-0.00118,-0.0199
1790616419.247021,-0.00646,0.00599,-0.99914,0.0024,0.00216,-0.00115
1790616419.367116,-0.00592,0.00216,-0.99666,0.00208,0.00233,0.0042
1790616419.468382,-0.00575,0.00497,-0.99702,0.00014,0.00251,0.00431
1790616419.568201,-0.00531,0.00487,-0.99917,0.00344,0.00312,0.00071
1790616419.6668658,-0.00435,0.00935,-1.00009,0.00448,0.00156,-0.00491
1790616419.7683752,-0.00332,0.01119,-0.99826,0.00418,0.00084,-0.00835
1790616419.865725,-0.0025,0.01341,-0.99697,0.00172,0.0021,-0.01606
1790616419.968731,-0.00493,0.01318,-0.99719,-0.0053,0.03468,0.01308
1790616420.086663,-0.00117,-0.00789,-0.99868,0.00235,-0.00626,0.00817
1790616420.190428,0.00561,0.00517,-0.99662,0.01116,0.01217,0.01151
1790616420.291702,-0.00442,0.00373,-0.9973,-0.00085,0.00221,0.00079
1790616420.391925,-0.00115,0.0425,-1.00027,-0.00496,-0.00624,-0.07118
1790616420.49051,0.00059,0.01173,-0.99995,0.00018,0.00119,-0.01925
1790616420.6082811,-0.00262,0.01296,-1.00044,0.00119,0.00195,-0.01414
1790616420.707526,-0.00423,0.015,-0.99823,0.00135,0.00092,-0.01763
1790616420.807749,-0.03077,0.02069,-1.00205,0.00271,0.01067,-0.03135
1790616420.9083211,0.00877,-0.00543,-0.9961,-0.00207,0.02091,0.02048
1790616421.008706,-0.00809,0.00988,-1.00094,0.0019,0.01031,0.00342
1790616421.128876,-0.00414,0.00838,-0.99966,0.00254,-2e-05,0.00624
1790616421.228093,-0.00635,0.00241,-0.99804,0.00406,0.00161,0.02184
1790616421.329687,-0.00672,-0.00145,-0.99854,0.00422,0.00133,0.02115
1790616421.427937,-0.0229,0.01406,-1.00148,-0.00373,-0.00023,-0.027
1790616421.5281541,-0.00266,0.00306,-1.00108,-0.00385,0.00994,-0.00774
1790616421.647668,-0.00387,0.01952,-0.99918,0.00423,0.00344,0.00364
1790616421.748943,-0.00685,0.00444,-0.99814,0.00577,0.00136,0.01436
1790616421.8677561,-0.00579,0.00375,-0.99897,0.00318,0.00042,0.01785
1790616421.967489,-0.00823,-0.01031,-0.99693,0.0019,0.00135,0.02207
1790616422.06755,-0.0081,0.00206,-0.9998,0.00523,-0.00097,0.02334
1790616422.168255,-0.02639,-0.00335,-1.00155,-0.00072,-0.01694,0.01273
1790616422.268553,-0.00476,-0.01569,-0.99849,0.00471,-0.00223,0.02201
1790616422.3681998,-0.01114,-0.00707,-0.99952,0.00584,3e-05,0.01514
1790616422.468478,-0.00858,-0.00618,-0.99879,0.00351,0.00355,0.02897
1790616422.5681112,-0.00894,-0.00653,-0.99904,0.00459,0.00198,0.02467
1790616422.667873,-0.01151,-0.00998,-0.9984,0.0057,0.00328,0.03088
1790616422.787652,-0.00505,0.01765,-0.99899,0.00605,0.00463,-0.00976
1790616422.888941,-0.00458,0.01183,-0.99871,0.00194,-0.00128,0.00089
1790616422.9893498,-0.00248,0.01125,-0.99977,0.00302,0.00504,0.01226
1790616423.089618,-0.00532,0.00485,-0.99931,0.00169,0.00131,0.01877
1790616423.1938891,-0.00801,-0.00106,-1.00032,0.00202,0.00022,0.02931
1790616423.2944498,-0.00987,-0.00519,-1.00124,0.00419,0.00535,0.02947
1790616423.391937,-0.0078,0.01965,-0.99913,-0.00067,0.00443,-0.01008
1790616423.508565,-0.00521,-0.00471,-1.0,0.00526,0.00444,0.02678
1790616423.609291,-0.00813,-0.00736,-1.00091,0.00299,0.00442,0.0234
1790616423.708517,-0.0107,-0.00857,-0.99911,0.00542,-0.00052,0.02382
1790616423.8096519,-0.00981,-0.00281,-1.00036,0.00412,0.00359,0.01404
1790616423.928565,-0.00189,0.01565,-0.99846,0.00379,-0.00041,0.00094
1790616424.0287108,-0.00367,0.00805,-0.99715,0.00275,0.00369,0.01204
1790616424.1295831,-0.00468,0.00497,-0.99785,0.00281,0.00175,0.02079
1790616424.2287512,-0.00706,-0.0015,-0.99895,0.00274,0.00191,0.02318
1790616424.328733,-0.01115,-0.0055,-0.99883,0.00458,0.00246,0.02874
1790616424.4290402,-0.01113,-0.01798,-1.00113,0.00541,-0.00165,0.05371
1790616424.549398,-0.01656,-0.00847,-1.00143,0.00399,0.00446,0.02731
1790616424.650177,-0.01215,-0.00951,-0.9985,0.00951,-0.00014,0.03033
1790616424.750057,-0.01029,-0.01027,-0.99664,0.00574,0.00198,0.02646
1790616424.850336,-0.01141,-0.00605,-0.99786,0.00403,0.00266,0.01622
1790616424.968519,-0.01042,-0.00321,-0.99779,0.00133,0.00281,0.00791
1790616425.0684428,-0.00642,0.00267,-0.99822,0.00415,-0.00128,-0.00891
1790616425.1686919,-0.00621,0.0049,-1.00021,0.00405,-0.00028,-0.01693
1790616425.268544,-0.0028,0.01472,-0.99968,0.00222,0.00169,-0.02676
1790616425.389696,0.00073,0.02027,-0.9966,-0.00223,-0.00135,-0.03186
1790616425.489917,-0.00113,0.0221,-1.00084,-0.00237,0.00166,-0.03607
1790616425.5891762,0.00228,0.02736,-0.99967,-0.00229,0.00233,-0.03778
1790616425.6911502,0.00146,0.02852,-0.9996,-0.00075,0.00575,-0.03331
1790616425.7895648,0.00361,0.02908,-1.00085,0.00068,0.00205,-0.02448
1790616425.890065,0.00089,0.02329,-0.99985,0.00109,-0.00297,-0.00838
1790616426.008841,0.00677,0.03407,-0.99976,0.00063,0.00386,-0.05235
1790616426.128659,-0.00488,0.02475,-1.00203,0.00393,-0.00018,-0.00445
1790616426.228714,-0.00462,0.01859,-0.99809,0.00372,0.00268,0.00773
1790616426.3288908,-0.00682,0.00766,-0.99956,-0.00019,0.00659,0.02134
1790616426.449335,-0.00834,0.00081,-0.99873,0.0056,0.00266,0.02908
1790616426.550405,-0.00729,-0.0013,-0.99773,0.00572,0.00382,-0.00699
1790616426.6496892,-0.01223,-0.01054,-0.99941,0.00206,0.00197,0.03525
1790616426.7510982,-0.01505,-0.0163,-0.99818,0.00553,0.00136,0.04388
1790616426.868451,-0.01491,-0.01777,-0.99753,0.00582,0.00041,0.03468
1790616426.968509,-0.01302,-0.0156,-0.99744,0.00496,0.003,0.02401
1790616427.069311,-0.00694,0.01572,-1.00024,-0.0007,0.00199,-0.05407
1790616427.16875,-0.00218,0.01175,-0.99999,-0.00042,0.0011,-0.007
1790616427.27097,-0.00513,0.00986,-0.9991,0.00073,-0.0014,-0.02174
1790616427.388659,-0.00323,0.02161,-0.99986,0.00123,-0.00224,-0.03386
1790616427.4884648,0.00268,0.02666,-1.00154,-0.00175,0.0017,-0.04007
1790616427.5886662,0.00366,0.03188,-0.99816,-0.00125,-0.00303,-0.04152
1790616427.688737,0.00589,0.03114,-1.00033,-0.00059,0.00315,-0.03178
1790616427.79136,0.00075,0.03099,-0.99997,-0.00158,-0.00019,-0.03228
1790616427.9116359,-0.00079,0.02798,-0.99996,0.0001,0.0035,-0.02346
1790616428.008657,-0.0005,0.02661,-0.99878,0.00145,0.00421,-0.00934
1790616428.109028,-0.006,0.01287,-0.99808,0.00169,-0.00026,0.01256
1790616428.212123,-0.00823,0.00166,-0.99886,0.0039,0.0035,0.03321
1790616428.330374,0.23775,0.01904,-1.01994,-0.003,0.02982,-0.00663
1790616428.429833,0.14046,-0.01484,-1.02114,0.04765,-0.03176,-0.02309
1790616428.529869,-0.07875,0.00467,-1.02268,0.0137,-0.05981,-0.00222
1790616428.650309,-0.13538,0.01135,-0.99112,0.00491,-0.01903,-0.02703
1790616428.749704,-0.04196,-0.01268,-1.01981,0.01335,0.00968,0.0043
1790616428.849358,0.07404,-0.02575,-1.01492,0.01509,-0.00852,0.04374
1790616428.949572,0.05027,0.02077,-0.97956,0.02438,-0.05661,-0.01211
1790616429.0494132,-0.04277,-0.00265,-0.96748,-0.0116,0.02282,0.02816
1790616429.149778,-0.05203,0.02029,-1.00244,0.0339,-0.00174,0.00268
1790616429.269713,-0.00659,0.02035,-1.0065,0.00298,0.01853,-0.03618
1790616429.3695822,0.04215,0.02662,-1.00916,0.01198,-0.00195,-0.00622
1790616429.469513,0.01153,-0.02001,-0.98338,-0.02116,0.02452,0.0293
1790616429.569982,-0.02568,0.00677,-0.99967,0.00558,0.01343,-0.01112
1790616429.6903522,-0.05307,0.01693,-1.06872,0.03152,-0.01988,0.02097
1790616429.789865,-0.02367,-0.02748,-0.99202,0.02139,0.01562,0.05657
1790616429.889693,-0.05973,0.01078,-1.02061,-0.01098,0.00144,0.00537
1790616430.010628,-0.06865,-0.01014,-1.01356,-0.02667,0.01074,0.03282
1790616430.110749,-0.07389,0.00731,-0.99901,0.00577,0.0032,-0.00265
1790616430.210816,-0.04247,0.01243,-0.99056,-0.0071,0.00046,0.0188
1790616430.313347,0.02204,0.00385,-0.99636,0.00715,0.01523,0.02205
1790616430.411964,0.00544,0.02092,-1.00066,0.00459,-0.0009,0.00362
1790616430.52955,-0.01694,0.01934,-0.99317,-0.00073,0.00102,-0.01906
1790616430.629765,0.01553,-0.00088,-0.99821,0.00786,0.00723,0.00509
1790616430.7512572,0.0171,-0.00584,-0.99975,-0.00472,-0.00234,0.02227
1790616430.849594,-0.00039,-0.00121,-1.00176,0.00308,0.00444,-0.0008
1790616430.949624,-0.03079,-0.01085,-0.99901,0.00596,-0.00238,0.00736
1790616431.049901,-0.06184,-0.01341,-0.9972,0.00459,-0.00025,0.02783
1790616431.1496232,-0.02518,0.0031,-0.99914,0.00167,0.00584,-0.00216
1790616431.249565,-0.00792,-0.0018,-0.99946,-0.00082,0.00211,0.00482
1790616431.369463,0.00714,0.00117,-0.99898,0.00525,0.00046,0.00495
1790616431.469586,0.00421,0.00338,-0.99817,0.00345,0.00196,0.00436
1790616431.569509,0.00179,0.00468,-1.00115,0.00535,0.00331,0.00224
1790616431.66963,-0.00384,0.00184,-0.99845,0.001,0.00111,0.00576
1790616431.78954,-0.00472,0.00177,-1.00066,0.00153,0.00074,0.00302
1790616431.889667,-0.00155,0.00785,-0.99749,0.00133,0.00469,-0.00994
1790616431.9897869,-0.00262,0.00437,-0.99947,0.00521,0.00409,-0.0003
1790616432.109789,-0.00499,0.00394,-0.99896,0.00093,0.00417,-0.00078
1790616432.210469,-0.0041,0.00064,-0.9991,0.00589,0.00133,0.00566
1790616432.3101702,-0.0051,0.00257,-0.9978,0.00264,0.00402,0.00371
1790616432.411564,-0.00425,0.00349,-0.99852,0.00359,0.00224,0.00279
1790616432.5094972,-0.00225,0.0005,-0.99904,0.00279,0.00095,0.00414
1790616432.610323,-0.0047,0.00195,-0.99939,0.00449,0.00024,0.00507
1790616432.710263,-0.00559,0.00546,-0.99989,0.00347,0.00276,0.00256
1790616432.8296719,0.00811,0.00803,-0.99955,0.00255,0.00156,-0.01031
1790616432.929586,-0.01529,0.00527,-0.99669,0.00333,-0.00032,0.00099
1790616433.031065,0.00112,0.0053,-0.99876,0.00048,0.00338,0.00025
1790616433.129727,0.00098,0.00869,-1.00077,-0.0001,0.00106,-0.00866
1790616433.2296681,0.00019,0.0089,-1.00022,0.00201,0.00037,-0.00942
1790616433.349637,0.00255,0.01534,-0.99969,-0.00157,-0.00137,-0.01484
1790616433.449715,-0.00205,0.01532,-0.99922,0.00059,0.00277,-0.02027
1790616433.54969,-0.00018,0.01466,-1.00093,0.00492,0.0047,-0.01728
1790616433.671674,0.00014,0.01042,-0.99988,-0.00013,0.00389,-0.01708
1790616433.777121,-0.00235,0.01114,-0.99976,0.00156,0.00164,-0.01808
1790616433.8721962,-0.00048,0.01092,-0.99876,0.00238,-0.00093,-0.01611
1790616433.9706292,-0.00769,-0.00184,-0.99926,0.00391,0.00738,-0.02219
1790616434.070647,-0.0013,-0.00142,-1.00187,0.00293,0.00179,-0.00914
1790616434.190758,-0.00192,0.0081,-1.00153,0.00408,0.00305,-0.00775
1790616434.2909172,-0.00321,0.00537,-1.00046,0.00307,0.00114,-0.01682
1790616434.390818,-0.00118,0.01127,-1.0011,0.0032,-0.00321,-0.01537
1790616434.490884,0.01078,0.018,-0.99984,0.00342,0.00268,-0.00866
1790616434.611091,-0.01222,-0.00996,-1.00153,0.0079,0.00158,0.01615
1790616434.710429,-0.00922,-0.00893,-0.99943,0.00308,0.001,0.01805
1790616434.810425,-0.00733,-0.01115,-0.99749,0.00576,0.00322,0.01978
1790616434.910561,-0.00933,-0.01433,-0.99986,0.00536,0.00423,0.02362
1790616435.012674,-0.00784,-0.01126,-1.00034,0.0029,0.00191,0.01859
1790616435.132761,-0.01412,-0.01035,-0.99893,0.00645,0.00046,0.02315
1790616435.230586,-0.00874,-0.01607,-0.99818,0.00476,0.00317,0.03046
1790616435.3505979,-0.00972,-0.0117,-0.99979,0.0066,0.00414,0.03486
1790616435.4503691,-0.00867,-0.01024,-0.99852,0.00283,0.00163,0.02589
1790616435.550422,-0.0102,-0.00988,-0.99992,0.00236,0.00292,0.02879
1790616435.6503522,-0.00916,-0.0092,-0.99864,0.00603,0.00127,0.02843
1790616435.750593,-0.00818,-0.00939,-0.99873,0.00518,0.00146,0.03092
1790616435.850635,-0.0089,-0.00835,-1.00024,0.00418,0.00037,0.02714
1790616435.970749,-0.00761,-0.00432,-0.99725,0.00035,0.00229,0.02664
1790616436.0723588,-0.00637,-0.00444,-1.00141,0.00319,0.00342,0.02446
1790616436.172657,-0.00962,-0.00425,-0.99887,0.00714,0.00333,0.02555
1790616436.290455,-0.00639,-0.00264,-0.99958,0.00226,0.00426,0.02474
1790616436.3911848,-0.00879,-0.00644,-0.99751,0.00454,0.00217,0.02477
1790616436.4905632,-0.00808,-0.00438,-0.998,0.00228,0.00665,0.02959
1790616436.5916429,-0.00851,0.00436,-1.0007,0.00718,0.00243,0.02886
1790616436.691638,-0.00171,0.01449,-1.00154,0.00428,-0.00509,-0.00219
1790616436.811417,-0.00379,0.00765,-1.0035,0.00367,-0.00279,0.00372
1790616436.911911,-0.00468,0.00102,-0.99905,0.00095,0.00339,0.01789
1790616437.0114582,-0.00993,-0.00619,-0.99928,0.00404,0.0051,0.02665
1790616437.112035,-0.00867,-0.00613,-1.00004,0.00141,0.00484,0.02662
1790616437.2124732,-0.00604,-0.00549,-0.99833,0.00319,0.00109,-0.00155
1790616437.351551,-0.00592,0.00405,-0.9999,0.00264,0.00448,0.0164
1790616437.451583,-0.00388,0.00267,-0.99729,0.00191,0.00103,0.01546
1790616437.5515468,-0.00329,0.00493,-0.9966,0.00184,0.00047,0.01766
1790616437.65151,0.01543,0.02493,-0.99814,0.00494,0.00725,-0.02811
1790616437.751557,0.00446,0.01404,-1.00174,0.00446,0.00252,-0.01937
1790616437.8515399,0.01328,0.03528,-0.99807,0.01311,0.00312,-0.01479
1790616437.951576,-0.00374,-0.00113,-0.99612,0.00879,0.00962,-0.00229
1790616438.0515509,-0.00959,-0.02609,-0.99596,-0.00141,0.01197,0.01405
1790616438.151634,-0.00789,-0.00369,-1.00016,0.00116,0.00351,0.008
1790616438.2529962,-0.00683,-0.00975,-0.99939,8e-05,0.00239,0.00291
1790616438.371823,-0.00607,-0.00086,-0.99917,0.00251,0.00026,-0.00589
1790616438.47185,-0.00952,-0.02808,-0.99699,0.0074,0.00185,0.02093
1790616438.572282,-0.01296,-0.01535,-0.99873,0.00179,0.00311,0.00836
1790616438.6917682,-0.00861,-0.00353,-0.99955,0.00402,0.00268,-0.00329
1790616438.7914681,-0.00389,-0.02045,-0.99784,0.00136,0.00487,0.0309
1790616438.891618,-0.00888,-0.02082,-0.99901,0.00719,0.00183,0.03912
1790616438.991649,-0.01288,-0.01507,-0.99966,0.00427,0.00548,0.03202
1790616439.091438,-0.01105,-0.01482,-0.99895,0.00425,0.00615,0.01488
1790616439.191447,-0.00336,-0.02181,-0.99774,0.00363,0.00289,0.00883
1790616439.291977,-0.01793,-0.02268,-0.99878,0.00745,0.00317,0.04929
1790616439.394057,-0.01135,-0.02125,-0.99859,0.00515,0.00221,0.03817
1790616439.494751,-0.0131,-0.00856,-1.00058,0.00295,-0.00059,0.02306
1790616439.612175,-0.00347,0.00354,-1.00009,0.00263,0.00472,0.01925
1790616439.7117262,-0.00845,-0.00554,-0.9979,0.00222,0.00048,0.03157
1790616439.831532,-0.01014,-0.01542,-0.9983,0.00414,0.00472,0.02911
1790616439.93228,-0.009,-0.01216,-0.99955,0.00229,0.00395,0.00235
1790616440.032321,-0.00923,-0.01779,-0.99962,0.00694,0.00125,0.03126
1790616440.131741,-0.01114,-0.022,-0.99837,0.0025,0.00217,0.05775
1790616440.251553,-0.03114,-0.03661,-0.99817,0.00765,0.00269,0.04007
1790616440.3516119,-0.01399,-0.01647,-0.99954,0.00604,0.00534,0.04002
1790616440.451584,-0.01109,-0.01936,-0.99787,0.00606,0.00235,0.03895
1790616440.571458,-0.01285,-0.01443,-0.99821,0.00188,0.00656,0.02634
1790616440.6721869,-0.01055,-0.00117,-0.99955,0.00469,-0.00198,-0.0026
1790616440.793979,-0.00724,-0.00908,-0.99699,0.00613,0.00284,0.02805
1790616440.892432,-0.01203,-0.01745,-0.99815,0.00524,0.00249,0.02902
1790616441.0113652,-0.00555,-0.00749,-0.99907,0.0042,0.007,-0.02795
1790616441.1116931,-0.00499,0.01169,-0.99867,0.00056,0.00143,-0.02236
1790616441.211446,0.00142,0.01133,-1.0,0.00329,0.00083,-0.02611
1790616441.311706,0.00374,0.02034,-0.99948,0.00165,0.00069,-0.03299
1790616441.4316502,0.00076,0.00495,-0.99899,0.0069,0.00611,0.02343
1790616441.531578,-0.00735,0.01636,-0.99952,0.00338,0.00527,-0.00166
1790616441.633425,-0.00334,0.00605,-0.99861,0.00361,0.00161,0.01346
1790616441.731463,-0.00616,-0.00403,-1.00096,0.00396,-0.0003,0.023
1790616441.871528,-0.00842,-0.00834,-0.99891,0.00322,-0.00088,0.02613
1790616441.971615,-0.00929,-0.01245,-0.99898,0.00375,0.00498,0.0299
1790616442.094899,-0.00997,-0.0136,-0.99852,0.00426,0.0034,0.02799
1790616442.193415,-0.01147,-0.01494,-0.99915,0.0005,0.00215,0.029
1790616442.294156,-0.00977,-0.01682,-0.99836,0.0025,0.00359,0.02547
1790616442.391367,-0.00989,-0.01163,-1.00065,0.00346,0.00432,0.01211
1790616442.492509,-0.00735,-0.00576,-1.00025,0.00335,0.00258,-0.00326
1790616442.612385,-0.00503,0.00166,-0.99887,0.00112,-0.0011,-0.01673
1790616442.711251,-0.00236,0.01238,-1.00057,0.00379,-8e-05,-0.03134
1790616442.811496,0.00074,0.0184,-1.00236,0.00276,-0.00161,-0.03926
1790616442.911595,0.00298,0.02295,-1.00138,0.00288,0.00383,-0.0359
1790616443.0117881,0.00625,0.02398,-1.00095,0.00084,-0.00084,-0.03221
1790616443.131299,-0.0013,0.01116,-1.00232,0.00359,0.00311,0.00355
1790616443.231325,-0.00966,0.01921,-1.0002,0.00664,-0.00108,-0.00112
1790616443.333814,0.00194,0.01472,-1.00082,0.00583,-0.00056,0.00218
1790616443.4513412,-0.00371,0.00269,-1.00013,-0.00107,0.00306,0.01124
1790616443.5514429,-0.01074,-0.00426,-0.99871,0.00143,-0.00146,0.02305
1790616443.651319,-0.00676,-0.00254,-1.00055,0.00206,0.00205,0.02219
1790616443.75138,-0.00889,0.00579,-1.00118,0.00317,0.00334,-0.02061
1790616443.8543518,-0.00531,-0.01476,-0.99654,0.00376,0.00067,0.02915
1790616443.954298,-0.01454,-0.01739,-0.99917,0.00529,0.00375,0.04398
1790616444.092094,-0.01346,-0.02497,-1.00082,-0.00125,0.00811,0.02224
1790616444.193674,-0.00953,-0.02445,-0.9991,0.00619,0.00045,0.0421
1790616444.291533,-0.00995,-0.01568,-1.00035,0.00473,0.00662,0.03635
1790616444.391855,-0.01136,-0.01707,-1.00031,0.00122,0.00621,0.0416
1790616444.494006,-0.01325,-0.01874,-0.99905,0.00346,0.00707,0.03547
1790616444.594052,-0.00639,-0.00911,-0.99778,0.00376,0.00805,-0.00424
1790616444.696314,-0.00935,-0.01802,-0.99855,0.00505,0.00088,0.02976
1790616444.811591,-0.01184,-0.01788,-0.99838,0.00355,0.0044,0.03809
1790616444.911467,-0.01731,-0.02361,-0.99955,-0.00182,0.0022,0.01619
1790616445.0115461,-0.00993,-0.02857,-0.99951,0.00394,0.01009,0.04034
1790616445.1115,-0.01468,-0.02177,-0.99878,0.00227,0.00215,0.0401
1790616445.211436,-0.01381,-0.02181,-0.99926,0.00343,0.00335,0.03777
1790616445.331239,-0.00039,-0.02233,-0.99739,0.00901,0.01204,0.01427
1790616445.4316218,-0.01546,-0.01373,-0.99716,0.00076,0.00775,0.03333
1790616445.532187,-0.01539,-0.02176,-1.00022,0.00485,0.0062,0.04281
1790616445.632319,0.01388,0.02543,-0.99837,0.00391,0.0089,-0.0211
1790616445.732317,-0.00857,-0.02034,-0.99972,0.00402,0.00067,0.01994
1790616445.8324459,-0.00978,-0.00946,-0.99883,0.00201,0.00666,0.01589
1790616445.932462,0.03892,0.15169,-0.98347,-0.02612,-0.01374,-1.24226
1790616446.0327191,0.03412,0.05512,-1.00944,0.00048,-0.01793,-0.866
1790616446.132513,0.00483,-0.03541,-1.00393,0.01558,-0.00307,-0.95527
1790616446.253056,0.0008,0.01202,-0.99837,0.01287,0.00848,-1.03582
1790616446.372593,0.00555,0.00059,-1.00125,-4e-05,0.00317,-0.95389
1790616446.472471,0.00512,-0.00268,-0.99726,0.01119,0.02812,-1.02653
1790616446.5724108,0.0038,-0.0007,-1.00494,-0.00138,0.02009,-1.03777
1790616446.672698,0.01647,0.00713,-1.01072,0.00232,-0.0046,-1.08572
1790616446.772595,0.01718,0.02337,-0.99347,0.01143,0.0114,-1.08118
1790616446.8724742,-0.00683,-0.0194,-1.01684,-0.04508,0.01038,-0.95605
1790616446.973048,-0.01656,-0.04257,-1.00291,-0.00932,0.01887,-0.85984
1790616447.07266,7e-05,-0.04529,-0.99836,0.0006,0.01522,-0.76725
1790616447.173432,-0.0281,-0.02304,-1.00416,-0.00217,0.02179,-0.67176
1790616447.2923,0.01763,0.00459,-1.0054,0.00913,0.00795,-0.59834
1790616447.392262,-0.02076,0.0164,-1.0099,-0.01172,0.01741,-0.47985
1790616447.492237,0.00381,-0.04076,-0.99913,0.00852,0.00483,-0.45926
1790616447.593206,0.00062,-0.0065,-1.00024,-0.00308,0.00648,-0.30333
1790616447.693598,-0.00391,0.02739,-0.99804,0.00316,0.00731,-0.23497
1790616447.815423,-0.01734,0.01533,-1.00115,-0.00586,0.00636,-0.19621
1790616447.914282,0.02094,-0.00653,-0.99952,0.00571,0.0036,-0.22046
1790616448.01381,0.02407,0.00467,-1.00163,-0.00076,0.00275,-0.17604
1790616448.114897,-0.00673,0.03959,-0.99844,0.00631,0.00218,-0.19565
1790616448.213658,-0.01005,-0.01791,-0.99659,0.00776,0.00509,0.00601
1790616448.315264,-0.00504,0.00152,-0.99811,0.00094,0.00263,0.01278
1790616448.4136472,-0.00353,0.00302,-0.99669,0.00424,0.00035,0.01254
1790616448.516484,0.00393,0.02228,-0.9973,0.00068,0.00453,0.00149
1790616448.632229,-0.00151,-0.00031,-0.99943,0.00358,0.00368,0.01462
1790616448.732765,-0.00297,-0.00147,-0.99945,0.00416,0.00242,0.01966
1790616448.8323562,0.00142,0.0012,-1.00008,0.0036,-7e-05,-0.00338
1790616448.932433,-0.00678,0.03077,-1.00109,-0.00081,-0.00083,-0.05168
1790616449.032373,0.007,0.02973,-1.00047,0.00319,0.00311,-0.02352
1790616449.1325068,0.01007,0.02439,-1.00011,0.00234,-0.00023,-0.02457
1790616449.232393,0.00538,0.02656,-0.99946,0.00128,-0.00046,-0.02415
1790616449.332567,0.00891,0.02727,-1.00031,0.00111,0.00219,-0.02448
1790616449.4520772,0.18157,0.0083,-0.99877,-0.00429,0.03714,-0.05579
1790616449.552354,0.23024,0.02707,-0.99022,-0.00026,0.01248,-0.04101
1790616449.651969,0.03039,0.00168,-1.00554,0.00515,-0.01425,-0.02938
1790616449.752631,-0.1162,0.02599,-0.99424,0.02026,-0.00414,-0.03898
1790616449.853318,-0.09554,-0.01169,-1.00016,0.0013,0.03605,0.00584
1790616449.972522,0.054,0.02164,-1.00752,0.00224,0.01009,-0.01741
1790616450.072891,0.08376,0.01168,-1.00417,0.01687,-0.0024,-0.00017
1790616450.172488,-0.00087,0.01078,-1.01473,0.03145,0.01775,0.00295
1790616450.272618,-0.05532,0.01491,-0.98202,0.02108,-0.02092,0.00114
1790616450.3735821,-0.02971,0.01264,-0.98543,-0.00968,0.02518,0.01259
1790616450.472366,0.03254,0.01044,-0.98349,0.02056,0.02786,0.0127
1790616450.5923321,0.04003,0.02554,-0.99851,0.01663,0.0052,-0.00631
1790616450.692371,-0.01264,0.01322,-1.01721,-0.00229,-0.06693,0.00992
1790616450.8128908,-0.03574,-0.03387,-1.02064,0.05482,-0.00722,-0.0224
1790616450.916325,-0.00793,0.02873,-0.98641,0.00103,-0.01964,-0.05432
1790616451.013792,-0.02162,0.06837,-1.00595,0.00643,0.02135,-0.03329
1790616451.113173,-0.0789,-0.01433,-0.99334,0.03022,-0.00888,0.02933
1790616451.214226,-0.10354,0.00841,-1.00189,-0.00145,0.00822,-0.01161
1790616451.332234,0.02367,0.0155,-0.99724,0.00085,0.01979,-0.00096
1790616451.432273,0.00321,0.0291,-0.99369,0.00348,0.00659,-0.00257
1790616451.532243,-0.03095,0.01648,-1.00343,-0.00359,-0.0038,0.00231
1790616451.632607,-0.0593,0.00615,-1.00516,-0.00454,0.00237,0.00154
1790616451.7329931,0.00148,0.01636,-1.00143,0.00461,0.00653,-0.0042
1790616451.832675,0.02969,0.01641,-1.00111,0.00957,0.0125,-0.00763
1790616451.952389,-0.00627,0.0225,-0.99942,0.0212,-0.00205,-0.0277
1790616452.05223,-0.02745,0.01516,-0.99224,0.00593,0.00518,0.00564
1790616452.1526442,-0.01699,0.01276,-0.99834,0.00167,0.00774,-0.00253
1790616452.2526772,-0.06853,0.03583,-0.99719,0.0035,-0.01029,-0.03974
1790616452.35248,-0.03393,0.02214,-0.9995,0.00628,0.00411,0.00634
1790616452.452492,-0.01776,0.00989,-1.00068,-0.00097,0.00514,0.00179
1790616452.55235,-0.00985,0.01311,-1.00155,0.0003,0.003,0.00544
1790616452.652286,0.00595,0.01486,-1.00045,0.0048,0.00098,0.00277
1790616452.7525172,0.00504,0.01379,-0.99828,0.0024,0.00441,0.0047
1790616452.873684,-0.00602,0.01312,-1.00009,0.00582,0.00443,0.00636
1790616452.97468,-0.01047,0.01336,-1.00084,0.00404,0.00474,0.00266
1790616453.092136,-0.00767,0.01123,-0.99877,0.00331,0.00387,0.00245
1790616453.1921668,-0.01477,0.01431,-1.00026,-0.00082,-0.00071,-0.003
1790616453.2923589,-0.00756,0.00876,-1.00148,9e-05,0.00068,0.01449
1790616453.39232,-0.00675,0.0066,-1.00058,0.0054,0.00347,0.01868
1790616453.492862,-0.00306,0.02405,-0.99993,0.00262,0.00029,-0.00789
1790616453.612455,-0.0044,0.01661,-0.99787,0.00349,0.00267,0.00178
1790616453.712409,-0.00633,0.01226,-1.00234,0.00428,0.00383,0.00497
1790616453.832159,-0.00666,0.01414,-1.00164,0.00282,0.00426,0.00399
1790616453.932483,-0.00717,0.01089,-1.00152,0.00432,0.00191,0.00545
1790616454.052785,-0.00769,0.00826,-0.99932,-0.00054,0.00182,0.01327
1790616454.152145,-0.00813,0.01181,-0.99921,0.00412,0.00232,0.01119
1790616454.252202,-0.01375,0.0228,-1.00123,0.00057,0.0053,-0.00513
1790616454.352134,-0.00139,0.019,-0.99956,0.00361,0.00053,-0.0051
1790616454.452532,-0.00567,0.01598,-1.00003,0.00319,0.00384,-0.00564
1790616454.552413,-0.00735,0.00912,-1.00133,0.00339,0.00326,0.00579
1790616454.652568,-0.01081,0.00505,-1.00046,0.00363,0.00606,0.01433
1790616454.7754502,-0.0093,0.00921,-0.99965,0.0002,0.00708,0.00751
1790616454.872362,-0.00218,0.02516,-0.99834,0.00316,0.00131,-0.00831
1790616454.9722319,-0.00012,0.028,-0.99931,0.00437,0.00375,-0.0134
1790616455.073777,-0.00121,0.03231,-0.99901,0.00176,0.00136,-0.0253
1790616455.172124,-0.00311,0.01911,-1.0011,0.00408,0.00068,-0.01686
1790616455.312154,-0.00499,0.01619,-1.00071,0.00529,0.00327,-0.01021
1790616455.412479,-0.00815,0.01673,-0.99852,0.00264,0.00244,-0.00813
1790616455.512639,-0.00506,0.02152,-1.00087,0.00345,0.00411,-0.00774
1790616455.6122491,0.00011,0.02917,-1.00064,0.00196,0.00297,-0.01872
1790616455.70911,-0.00163,0.02821,-0.99842,0.00286,0.0011,-0.02349
1790616455.83234,-0.005,0.01972,-0.99901,0.00728,0.00229,0.00076
1790616455.9321458,-0.02608,-0.00368,-1.00208,0.00552,-0.00388,0.02156
1790616456.0323288,-0.01124,0.00334,-0.99977,0.00388,0.00138,0.01725
1790616456.1324139,-0.00858,0.00245,-1.00022,0.00415,0.00088,0.02051
1790616456.2323258,-0.00907,0.0115,-0.99851,0.0033,0.00382,0.01308
1790616456.332391,-0.00818,0.00873,-0.99863,0.00198,0.00256,0.01822
1790616456.433075,0.00957,0.02357,-1.00055,0.00525,0.00286,0.00147
1790616456.536063,-0.00575,0.02476,-0.99894,0.00772,0.00448,-0.00871
1790616456.652289,-0.00365,0.02815,-1.00053,0.00319,0.0011,-0.01636
1790616456.752274,-0.00047,0.02746,-0.99997,0.00167,0.0013,-0.01671
1790616456.852366,-0.00142,0.02639,-1.00067,0.00438,0.00217,-0.01331
1790616456.9523451,-0.00255,0.02828,-0.99846,0.00556,0.00253,-0.02487
1790616457.0523992,-0.00333,0.0268,-0.99781,0.00237,0.00549,-0.02157
1790616457.172469,-0.00128,0.02748,-0.99863,0.00301,0.00233,-0.02524
1790616457.276143,-0.00034,0.02822,-1.0013,0.00345,0.00048,-0.02625
1790616457.3738098,-0.0015,0.02322,-0.99964,0.00465,0.00052,-0.02458
1790616457.472641,-0.00395,0.02221,-0.99932,-0.0008,0.0029,-0.0244
1790616457.592355,-0.00728,0.01124,-0.99928,0.00219,0.00116,-0.01242
1790616457.692758,-0.00846,0.01806,-1.00132,0.00627,-0.00051,-0.01308
1790616457.7927191,-0.00705,0.01333,-0.99932,0.0025,0.00068,-0.01146
1790616457.8925571,-0.00815,0.00986,-0.99856,0.00568,0.00355,-0.00778
1790616458.0123708,-0.0076,-0.0007,-0.99627,0.00313,0.00414,-0.00959
1790616458.112231,-0.01716,-0.02184,-1.00024,0.00351,0.00291,0.03525
1790616458.212416,-0.01204,0.00485,-0.9988,0.00358,0.00727,0.02479
1790616458.312555,-0.00535,0.01407,-0.99777,0.00292,7e-05,0.0105
1790616458.4327822,-0.00762,0.01605,-0.99888,0.00412,0.00393,0.01159
1790616458.532254,-0.00221,0.01383,-0.99917,0.00316,0.0001,-0.03023
1790616458.634752,-0.00641,0.0147,-1.00026,0.00123,-0.00057,-0.02141
1790616458.735648,-0.00869,0.02305,-1.00012,0.00129,6e-05,-0.02138
1790616458.852266,-0.00921,0.01235,-0.99833,0.00533,0.00101,-0.01306
1790616458.952249,-0.00687,0.01688,-0.99875,0.00621,0.0004,-0.0147
1790616459.052143,0.00416,0.04105,-1.00061,0.00502,-0.00369,-0.07425
1790616459.152173,-0.01122,-0.00109,-0.99851,0.00275,0.00454,0.01417
1790616459.2520902,-0.01657,-0.0081,-0.99855,0.00335,-0.00087,0.02862
1790616459.352077,-0.01647,-0.00856,-1.00035,0.00817,0.00338,0.03453
1790616459.452061,0.11228,0.2862,-0.99223,-0.01699,-0.00744,-1.24659
1790616459.552107,-0.00779,0.00179,-1.01011,-0.00111,8e-05,-0.77591
1790616459.652288,-0.00422,0.01922,-0.99544,-0.02044,0.026,-1.02311
1790616459.7741618,0.02853,0.0263,-0.97437,0.0016,0.013,-1.01321
1790616459.873434,-0.00365,-0.00901,-1.01396,-0.01059,0.00899,-0.99295
1790616459.974933,0.00582,0.01837,-1.00624,0.01438,0.004,-1.06376
1790616460.093088,0.015,0.03154,-0.99338,-0.0062,0.02144,-1.07922
1790616460.193077,-0.00748,0.0132,-1.00022,-0.00868,0.01628,-0.9936
1790616460.293385,0.00368,0.00502,-0.98755,0.00038,0.02321,-0.96322
1790616460.393507,-0.01054,-0.02206,-0.99214,0.01679,0.00182,-0.98785
1790616460.5141041,-0.01876,-0.02617,-1.00491,0.02797,0.02227,-0.84069
1790616460.61361,-0.00336,-0.00531,-0.982,-0.00143,0.02236,-0.87043
1790616460.713214,0.01384,0.03646,-0.99864,0.00191,0.00811,-0.73551
1790616460.833044,-0.01745,-0.02767,-0.99879,0.00392,0.0011,-0.4925
1790616460.9360871,-0.02027,0.02787,-0.99628,-0.00414,0.0103,-0.4451
1790616461.0530748,-0.01543,0.01201,-1.00042,0.00652,0.01031,-0.32314
1790616461.153379,-0.00208,-0.00175,-1.00015,0.00208,0.00571,-0.24307
1790616461.253299,-0.01766,-0.02317,-1.00183,0.00107,-0.00055,-0.19584
1790616461.3534698,-0.01093,0.02536,-0.99965,0.00139,0.00151,-0.23405
1790616461.473239,-0.01282,0.01147,-0.99861,0.00408,0.00035,-0.20016
1790616461.5731509,-0.00873,0.02773,-1.00233,-0.00116,0.00374,-0.17484
1790616461.673223,-0.03939,-0.07153,-0.99919,0.00917,0.01123,-0.02265
1790616461.773025,-0.00797,-0.00661,-0.99925,0.00209,0.00589,0.02712
1790616461.8956978,-0.01151,-0.00422,-0.99942,0.00401,0.00174,0.03243
1790616462.001379,-0.01725,-0.00466,-0.9991,0.00367,0.00187,0.03224
1790616462.0969012,-0.01639,0.0054,-0.99974,0.0041,-0.00063,0.01571
1790616462.196661,-0.01091,-0.0023,-0.99945,0.00345,0.00162,0.02939
1790616462.313461,-0.0129,-0.00451,-0.99778,0.00493,0.00381,0.03291
1790616462.413501,-0.01716,-0.00524,-0.99871,0.00347,0.00559,0.02852
1790616462.513206,-0.00228,0.00307,-1.00008,0.00666,0.00173,-0.00888
1790616462.6348631,-0.01297,-0.00064,-0.99916,0.00452,0.0019,0.02911
1790616462.734476,-0.01158,-0.00186,-0.99726,0.00392,0.00282,0.02978
1790616462.835961,-0.01402,-0.00365,-0.99837,0.00229,0.00065,0.03332
1790616462.936518,-0.01597,-0.00665,-1.00055,0.00621,0.00078,0.02828
1790616463.053269,0.18754,-0.00635,-1.0058,0.00132,0.01837,0.01318
1790616463.1531572,0.18623,0.02903,-1.06447,-0.04639,-0.06762,-0.01169
1790616463.253471,0.02508,0.01969,-0.96742,0.03287,-0.02111,-0.03413
1790616463.3731809,-0.14918,-0.00596,-1.03142,0.00693,-0.03629,0.0171
1790616463.473262,-0.08765,0.01112,-1.00703,0.03833,0.01563,-0.04224
1790616463.5734851,0.05036,0.02337,-0.99693,0.02612,-0.0011,-0.01784
1790616463.6937962,0.04052,0.00598,-0.98063,0.07011,0.02795,0.00659
1790616463.8129761,-0.01215,0.00802,-0.97992,-0.00349,-0.00266,-0.02103
1790616463.9131892,-0.06808,0.00108,-1.02216,0.00412,-0.00756,0.01001
1790616464.013045,-0.02756,-0.01968,-1.01427,-0.00713,0.03646,0.03986
1790616464.1134799,0.00972,-0.00751,-1.02456,-0.00744,-0.00715,0.01753
1790616464.2351391,-0.04052,-0.00332,-1.02096,-0.02075,-0.01831,0.02869
1790616464.3531919,-0.03539,0.02747,-1.00572,-0.00531,0.03009,0.00017
1790616464.453132,-0.00449,0.01299,-0.99029,0.00607,-0.00019,0.00018
1790616464.5532439,-0.02991,0.00465,-0.99067,0.01127,-0.03363,0.01767
1790616464.673027,-0.07479,-0.00074,-0.98156,-0.0042,-0.00696,0.01071
1790616464.773222,-0.09995,0.0143,-0.99155,0.00219,-0.00418,-0.00662
1790616464.873249,-0.05652,-0.00606,-0.99314,0.02651,0.01451,-0.04866
1790616464.973191,0.0119,0.01236,-1.00038,0.00367,0.00573,-0.01803
1790616465.07338,0.00522,0.02498,-1.00799,-0.00209,-0.00797,0.00463
1790616465.19363,-0.03492,0.00102,-0.99636,0.00494,-0.00274,-0.00496
1790616465.293172,-0.0368,-0.01203,-0.99553,-0.0101,0.01209,0.05717
1790616465.393394,-0.00824,0.01543,-1.00232,0.01345,0.00699,-0.01322
1790616465.5130072,0.03435,0.01699,-0.9979,-0.00329,-0.0003,-0.0274
1790616465.613816,-0.01638,-0.01328,-0.99976,-0.0154,0.00669,0.0443
1790616465.712971,-0.04467,0.01295,-0.99831,0.01968,-0.00601,-0.04943
1790616465.8131049,-0.08286,0.02694,-0.99756,-0.00046,0.00236,0.056
1790616465.9136572,-0.03091,-0.00127,-0.99925,0.00462,0.00548,0.02252
1790616466.013236,-0.01862,0.00983,-0.99737,0.00504,0.00464,0.00247
1790616466.11318,-0.00965,0.01116,-0.99805,0.00715,0.00506,-0.00099
1790616466.2133539,-0.00995,0.00962,-0.99864,0.00328,0.00082,0.00197
1790616466.3133068,-0.01155,0.01267,-0.99902,0.00335,0.00233,-0.00039
1790616466.413502,-0.00936,0.00437,-0.99693,0.00453,0.00704,0.02287
1790616466.533077,-0.01034,0.00962,-0.99736,0.00123,0.00313,0.0092
1790616466.633079,-0.01213,0.00198,-0.99776,0.00522,0.0005,0.01657
1790616466.7330408,-0.012,0.00166,-0.99816,0.00798,0.00305,0.02239
1790616466.8544939,-0.01547,-0.00017,-0.99899,0.0055,0.00149,0.02172
1790616466.953173,-0.01435,-0.00475,-0.99887,0.0065,0.00481,0.02618
1790616467.053616,-0.01363,-0.00202,-0.99944,0.00471,0.00428,0.02018
1790616467.1543949,-0.01542,-0.00678,-0.99988,0.00384,0.00578,0.0266
1790616467.273153,-0.01633,-0.00281,-0.99844,0.00584,0.00401,0.02046
1790616467.373201,-0.02194,0.00445,-0.99916,0.0022,0.00582,0.01585
1790616467.4731221,-0.01344,0.00011,-0.99862,0.00301,0.00098,0.00773
1790616467.573219,-0.01177,0.00441,-0.99943,0.00572,0.00218,-0.00258
1790616467.673738,-0.00877,0.01033,-0.99764,0.002,0.00228,-0.01087
1790616467.793486,-0.00769,0.01891,-0.99946,0.00215,-0.00072,-0.01901
1790616467.895651,-0.00788,0.02711,-0.99962,0.00586,0.00131,-0.01137
1790616467.994352,-0.00979,0.01924,-1.00115,0.00363,0.00054,-0.00256
1790616468.093369,-0.00838,0.01375,-0.99746,0.00203,0.00531,0.01435
1790616468.194349,-0.01242,0.00407,-0.99993,0.00558,-0.00014,0.02734
1790616468.313024,-0.01718,-0.00962,-0.99736,0.00665,0.00273,0.03989
1790616468.413117,-0.01853,-0.01167,-0.99693,0.00716,0.00568,0.03113
1790616468.513078,-0.01464,-0.00282,-0.99928,0.00504,0.0045,0.00843
1790616468.613716,-0.01146,0.00903,-1.00025,0.00342,-0.00036,-0.01259
1790616468.713099,-0.00412,0.02451,-1.00235,-0.00067,-0.00207,-0.03358
1790616468.8331652,-0.00569,0.02065,-1.00107,0.00342,0.00502,-0.02299
1790616468.933425,-0.00065,0.05667,-1.00224,0.00389,0.00399,-0.02413
1790616469.056153,-0.00674,-0.01561,-0.99908,0.0077,0.01133,0.02249
1790616469.15297,-0.02452,-0.01082,-0.99824,0.00629,0.00141,0.04776
1790616469.255025,-0.01844,-0.01434,-0.99924,0.00452,0.00226,0.0308
1790616469.385046,-0.01391,0.00354,-0.99958,0.00293,0.00206,-0.00213
1790616469.4530718,0.00211,0.03338,-1.00482,0.0053,-0.00319,-0.05145
1790616469.5537238,-0.02339,0.02626,-1.00531,-0.00232,-0.01097,-0.04494
1790616469.653931,-0.0047,0.00556,-1.00098,-0.0011,0.01424,-0.02851
1790616469.773304,-0.00236,0.03109,-1.00095,0.0039,-0.00119,-0.03388
1790616469.873139,-0.00326,0.03184,-0.99915,0.00489,-0.0009,-0.01901
1790616469.973171,-0.00344,0.05891,-1.00381,-0.01286,-0.00806,-0.04308
1790616470.073754,-0.01832,-0.03446,-0.99813,0.0047,0.00087,-0.00206
1790616470.1929972,-0.00954,0.01954,-1.00019,0.00402,0.00152,-0.02592
1790616470.2933419,-0.00326,0.02899,-1.00192,-0.00013,-0.00036,-0.037
1790616470.3930519,-0.00138,0.033,-1.00129,0.00081,0.00311,-0.03498
1790616470.49334,-0.00534,0.02826,-1.00117,0.00662,0.00084,-0.00892
1790616470.595726,-0.01203,0.01685,-0.99921,0.0039,-0.00133,0.01096
1790616470.694582,-0.01153,0.06261,-1.00285,-0.02031,0.00075,-0.08995
1790616470.8143969,-0.00343,0.02848,-0.9995,0.00317,-0.00129,-0.01977
1790616470.9142668,-0.00658,0.01933,-0.99927,0.00754,-0.0004,0.00783
1790616471.033165,-0.01665,-0.00836,-0.99833,0.00649,0.00264,0.04035
1790616471.1330922,-0.02036,-0.0131,-0.9978,0.00495,0.0042,0.00648
1790616471.2331169,-0.01606,-0.00318,-0.99849,0.00373,0.00423,0.00768
1790616471.3332102,-0.01264,0.00752,-1.00052,0.00212,0.00163,-0.01499
1790616471.4335659,-0.00643,0.01718,-0.99935,0.00149,0.00323,-0.02631
1790616471.53347,-0.00442,0.04557,-1.00212,-0.0033,-0.00151,-0.06607
1790616471.652905,-0.01338,0.01708,-1.00003,0.00037,0.00147,-0.03534
1790616471.7557151,-0.00736,0.02669,-1.00115,0.00609,-0.00106,-0.03068
1790616471.853052,-0.00566,0.01585,-1.00017,0.00164,0.00329,-0.02613
1790616471.9530969,-0.00404,0.02215,-0.99889,0.00166,0.00222,-0.03915
1790616472.055431,-0.00223,0.02758,-1.00082,0.00182,0.00086,-0.03539
1790616472.154521,-0.00175,0.04736,-1.00367,0.00222,-0.00302,-0.09473
1790616472.255362,-0.01092,0.01991,-1.00033,0.00197,-0.00189,-0.04052
1790616472.3541481,0.00046,0.03125,-1.00335,-0.00121,0.00217,-0.03869
1790616472.454759,-0.00273,0.03217,-1.00065,0.00126,0.00448,-0.03008
1790616472.554066,-0.00643,0.02497,-1.00213,0.00673,0.00419,-0.0055
1790616472.655159,-0.01159,0.01424,-0.99913,0.00568,0.00208,0.02032
1790616472.774095,-0.00378,0.00533,-1.00026,0.00129,0.00755,-0.00168
1790616472.8743732,-0.00169,0.02292,-1.00241,0.00176,0.00331,-0.02447
1790616472.974279,-0.00131,0.02925,-1.00097,0.00435,0.00021,-0.03053
1790616473.074608,-0.00437,0.02819,-1.00277,0.00239,0.00231,-0.03418
1790616473.173941,-0.00751,0.02588,-1.0008,0.00133,0.00379,-0.02685
1790616473.294153,-0.00601,0.02383,-1.00015,0.00161,-0.00496,-0.02918
1790616473.394088,-0.0056,0.03331,-1.00278,0.0014,-0.00367,-0.02705
1790616473.494242,-0.00585,0.02887,-1.00102,0.00541,-0.00183,-0.03055
1790616473.5941272,-0.00464,0.02597,-1.00044,-1e-05,2e-05,-0.03038
1790616473.694164,-0.00404,0.01971,-1.00138,0.00144,0.0031,-0.02933
1790616473.817821,-0.01316,0.004,-1.00082,0.00274,0.00277,-0.01664
1790616473.914312,-0.00962,-0.00017,-0.99943,0.00036,0.00084,-0.02074
1790616474.0138502,-0.01778,-0.00729,-0.99799,0.00353,0.00466,0.00998
1790616474.113865,-0.0139,0.00727,-0.99993,0.00393,0.00379,0.00974
1790616474.2155142,-0.01067,0.01367,-1.00049,0.00318,0.00599,-0.004
1790616474.314133,-0.00541,0.01298,-0.99783,-8e-05,0.00578,-0.00036
1790616474.4154592,-0.00591,0.01762,-1.00121,0.00169,0.00391,0.00279
1790616474.514545,-0.01049,0.01436,-1.00235,0.00352,0.00295,5e-05
1790616474.6154702,-0.00773,0.01302,-0.99932,0.00611,0.00165,0.00172
1790616474.714487,-0.01158,0.00329,-0.99943,0.00388,0.00093,0.01881
1790616474.8153741,-0.01554,0.00243,-1.00027,0.00733,0.0015,0.01975
1790616474.9339252,-0.01531,-0.00114,-0.99845,0.00257,0.00329,0.02261
1790616475.034164,-0.00636,0.00536,-0.9958,-0.00104,0.00269,-0.00495
1790616475.133981,-0.01808,0.03164,-1.00084,0.00393,0.00217,-0.02448
1790616475.233881,0.00237,0.02872,-0.9999,0.00772,0.00872,-0.01557
1790616475.334441,-0.00046,0.01808,-0.99992,0.00578,0.00794,-0.00887
1790616475.435457,-0.00627,0.00766,-1.00026,0.00685,0.01164,-0.00533
1790616475.555511,-0.00762,0.02384,-1.00227,0.00622,0.00448,0.00563
1790616475.6539059,-0.01248,-5e-05,-1.00031,0.00777,0.0012,0.02372
1790616475.754855,-0.01603,-0.00427,-0.99907,0.00551,0.0026,0.02495
1790616475.8542778,-0.00211,-0.00618,-0.99913,0.00397,-0.00024,0.00924
1790616475.9771252,-0.02023,0.00919,-1.00023,0.00209,0.00574,0.00444
1790616476.0746791,-0.00522,0.0152,-0.99848,5e-05,0.004,-0.01238
1790616476.17571,0.00759,0.04169,-1.00037,0.00464,-0.00865,-0.06559
1790616476.293921,-0.00395,0.02573,-0.99973,0.00082,0.00197,-0.03318
1790616476.394488,-0.00445,0.01652,-1.00075,0.0031,0.002,-0.01618
1790616476.494412,-0.00686,0.01977,-0.99933,-0.00052,0.00385,-0.03666
1790616476.59446,-0.00224,0.02244,-0.99959,0.00055,0.00014,-0.01327
1790616476.6942751,-0.00152,0.02492,-0.9997,0.00277,0.00385,-0.03184
1790616476.794019,-0.009,0.02545,-1.00001,0.00228,0.00166,-0.01873
1790616476.916414,-0.00717,0.01444,-1.0004,0.0004,0.0018,-0.00408
1790616477.014475,0.0056,0.04817,-1.00089,0.00506,0.00028,-0.06304
1790616477.1142652,-0.00581,0.02369,-0.99767,0.00307,-0.00038,-0.0356
1790616477.214253,-0.00402,0.01847,-0.9995,0.00416,0.00162,-0.01592
1790616477.315499,-0.01124,0.01424,-0.99913,0.00143,0.00452,-0.0143
1790616477.434154,0.00034,0.04312,-1.00075,0.00178,-0.00185,-0.04176
1790616477.5340219,-0.01521,-0.00514,-0.99784,0.00185,0.01214,0.03557
1790616477.6346712,-0.01281,0.00173,-0.99896,0.00586,0.00221,0.01713
1790616477.736247,-0.00557,0.0008,-0.9972,0.0082,-0.00453,-0.00357
1790616477.853887,-0.00888,0.01619,-0.99909,0.00233,0.00304,-0.03476
1790616477.953825,-0.00673,0.02408,-0.99916,0.00308,0.00055,-0.01952
1790616478.054751,-0.00772,0.01652,-0.99847,0.00103,0.00648,-0.00595
1790616478.1539268,-0.01134,0.00524,-0.99778,0.00453,0.00222,0.02247
1790616478.2539158,-0.02207,0.00231,-0.99962,0.00245,-0.00375,0.00405
1790616478.354023,-0.01169,0.0028,-1.00015,0.00159,0.00321,0.00169
1790616478.454023,-0.01508,-0.00099,-0.99997,0.00228,0.00405,0.03135
1790616478.5540621,-0.01193,0.02397,-0.99853,0.00675,-0.00049,-0.04593
1790616478.654057,-0.00902,0.0154,-0.99795,0.00365,0.00609,0.0115
1790616478.754011,-0.01056,0.00338,-0.99879,0.00526,0.00225,0.02319
1790616478.874465,-0.01688,-0.00446,-0.9988,0.00339,0.00164,0.02485
1790616478.9768388,-0.01524,-0.00238,-0.9998,0.00269,0.00569,0.01561
1790616479.074593,0.00564,0.02726,-0.9999,0.00058,-9e-05,-0.02332
1790616479.193986,-0.01448,0.01274,-0.99774,0.00625,0.00523,-0.02416
1790616479.293869,-0.0149,-0.00787,-0.99822,-0.00043,0.00779,0.01894
1790616479.3939252,-0.01231,0.0138,-1.00155,0.00657,0.00125,-0.00861
1790616479.4940128,-0.00779,0.02394,-1.00085,0.00512,0.00243,-0.02373
1790616479.593919,-0.00538,0.02606,-1.00018,0.00489,0.00106,-0.02211
1790616479.693977,-0.00845,0.01236,-1.00001,0.00723,0.00572,0.0093
1790616479.794058,-0.01331,-9e-05,-0.99878,0.00014,0.00413,0.02796
1790616479.896232,-0.006,0.00492,-1.00011,0.00308,-0.00137,-0.03081
1790616480.0140889,-0.02042,0.001,-0.999,0.00134,-0.00136,0.02098
1790616480.1140769,-0.01687,-0.00563,-1.00015,0.00771,0.00046,0.03527
1790616480.214568,-0.01285,-0.01011,-0.9975,0.00494,0.00255,0.03629
1790616480.335775,-0.01601,-0.00075,-1.00112,0.00384,0.0015,0.00402
1790616480.437299,-0.01177,0.01258,-0.99865,0.00285,0.00429,-0.01697
1790616480.535927,-0.00731,0.02358,-1.00157,0.00302,0.00369,-0.02916
1790616480.6346428,-0.00106,0.03148,-0.99986,0.00465,0.00337,-0.0332
1790616480.7343428,-0.00611,0.0266,-0.99893,0.00782,0.00793,-0.01088
1790616480.854101,-0.00354,0.01513,-0.99788,0.00876,-0.00067,-0.00845
1790616480.954038,-0.00784,0.01354,-0.99944,0.00509,0.0027,-0.02801
1790616481.054365,-0.00598,0.02762,-0.99916,0.00796,0.00177,-0.03919
1790616481.1751208,-0.00383,0.03066,-0.99996,0.00246,0.00368,-0.02906
1790616481.27405,-0.00696,0.02244,-1.00118,0.00398,0.0036,-0.00581
1790616481.374231,-0.00956,0.01219,-0.99795,0.00381,-0.0002,0.01722
1790616481.495444,-0.01504,-0.00304,-1.00148,0.00299,0.00347,0.03471
1790616481.594219,-0.02756,-0.02667,-1.00334,0.00647,-0.00259,0.06501
1790616481.694719,0.00543,0.02502,-0.9999,0.00213,0.00517,0.02068
1790616481.794249,-0.00916,0.0006,-1.00187,-0.00418,0.00115,-0.01518
1790616481.914047,-0.00263,0.02268,-0.99782,0.01224,0.00343,-0.01908
1790616482.0139031,-0.03749,-0.01746,-1.00181,0.00305,0.00058,0.01354
1790616482.1145852,-0.00307,0.03531,-1.00124,0.00458,0.0085,-0.04436
1790616482.233925,-0.00352,0.02581,-0.99946,0.006,0.00622,-0.0141
1790616482.334372,-0.00888,0.01701,-0.99886,0.00696,0.00308,-0.00936
1790616482.437581,-0.00743,0.00809,-1.00073,0.00563,-0.00106,0.01784
1790616482.5539992,-0.01723,-0.01023,-1.00048,0.00591,0.00397,0.06574
1790616482.65403,-0.02058,-0.0127,-0.99981,0.00224,-0.00064,0.02751
1790616482.7540648,-0.0189,-0.01319,-0.99846,0.00325,0.00438,0.04128
1790616482.8938618,-0.01609,-0.00903,-0.99882,0.00108,0.00726,0.03257
1790616482.994959,-0.01704,0.00343,-1.00169,0.00432,0.00619,0.00968
1790616483.09673,-0.01471,0.01469,-1.00051,0.00447,-0.00183,-0.01403
1790616483.214114,-0.00618,0.02759,-0.99969,0.00789,0.0047,-0.03391
1790616483.314178,-0.00135,0.03003,-1.00147,0.0035,0.0035,-0.03449
1790616483.414054,-0.0041,0.02609,-0.99933,0.00394,0.00754,-0.01606
1790616483.514008,-0.00827,0.00746,-0.99783,0.00226,0.00031,0.01551
1790616483.634488,-0.01797,0.04126,-0.99963,0.00093,0.00931,-0.03848
1790616483.7337248,-0.00644,0.04611,-1.00203,0.00577,0.00159,-0.03831
1790616483.836148,-0.00193,0.02765,-0.9995,0.00734,0.00908,-0.01998
1790616483.936107,-0.0028,0.02985,-1.0004,0.00666,0.00934,-0.03439
1790616484.053901,-0.02371,-0.02563,-0.99846,0.00541,-0.00204,0.05068
1790616484.1539829,-0.02161,-0.01423,-0.99992,0.00076,0.00099,0.03481
1790616484.2541802,-0.02096,-0.01189,-0.99955,0.00238,0.00449,0.02505
1790616484.354149,-0.03611,-0.01331,-1.00004,0.00559,-0.00866,0.01347
1790616484.473984,-0.01457,-0.01693,-0.99968,-0.00078,-0.00344,0.02877
1790616484.5739882,-0.01555,-0.01301,-0.99638,0.00529,0.00545,0.04608
1790616484.69418,-0.02253,-0.01282,-0.99767,0.00651,0.00116,0.02971
1790616484.795821,-0.00296,0.04551,-0.99875,0.00016,0.00319,-0.02403
1790616484.895662,-0.01105,0.03073,-1.00186,-0.00061,0.00543,-0.04763
1790616485.013945,-0.01801,0.02482,-0.99914,0.00926,0.00096,0.00924
1790616485.113982,-0.01772,-0.01423,-0.99875,0.00293,0.00088,0.03597
1790616485.21394,-0.02079,0.00329,-1.00079,0.00105,0.00322,0.01936
1790616485.31423,-0.01494,-0.00621,-0.99839,-0.00119,0.00203,0.00655
1790616485.43551,-0.01374,0.00391,-1.00041,0.00404,0.00127,-0.00265
1790616485.533847,-0.015,0.00108,-0.99836,0.00366,0.00099,0.00271
1790616485.633835,-0.00491,0.00563,-0.99959,0.00348,0.00942,-0.02735
1790616485.753949,-0.0234,-0.01172,-0.99861,0.00608,-0.00118,0.03268
1790616485.8538601,-0.01966,-0.01025,-0.99798,0.00497,0.00793,0.03127
1790616485.95398,0.00204,0.01216,-0.99528,0.01199,0.01356,0.01723
1790616486.054108,-0.01448,-0.01959,-0.99932,0.00523,0.00641,0.04414
1790616486.154092,-0.02211,-0.01101,-0.99878,0.00485,0.00123,0.03443
1790616486.2744372,-0.01494,-0.04129,-0.99871,-0.00593,0.01698,0.98523
1790616486.374068,-0.01441,-0.03467,-1.00196,-0.00248,0.00116,0.81897
1790616486.4938738,-0.00365,0.01204,-1.01161,0.00698,0.00158,0.97374
1790616486.593763,0.01835,0.04334,-0.99176,0.02006,-0.00518,0.95499
1790616486.6941912,0.00064,-0.00528,-1.00754,0.00948,-0.01281,1.01077
1790616486.813963,-0.00455,0.00516,-0.99486,0.00416,0.00963,0.98749
1790616486.913825,-0.01281,-0.02904,-1.0097,-0.01231,-0.00542,1.08451
1790616487.0137632,0.01842,0.05472,-1.00493,0.00055,-0.0015,0.99336
1790616487.1139672,-0.01975,0.00157,-0.98739,0.00896,0.00669,1.09723
1790616487.213822,0.00603,-0.00323,-0.9861,0.01901,-0.00533,1.04834
1790616487.313853,-0.00359,0.00901,-0.98761,0.01901,0.00184,0.96521
1790616487.433762,0.00303,0.01411,-0.99955,-0.00626,-0.00888,0.84526
1790616487.5341592,0.01232,0.06056,-0.99982,-0.00236,-0.0063,0.708
1790616487.634408,-0.02726,-0.0287,-1.00015,0.00674,-0.00154,0.6733
1790616487.755299,0.0159,0.06728,-0.99693,-0.00387,-0.00209,0.37459
1790616487.874111,0.00914,0.04786,-0.99901,-0.00141,-0.00243,0.37335
1790616487.973867,-0.00115,0.03207,-0.99749,0.00359,-0.00187,0.34842
1790616488.074274,0.00206,0.05127,-1.00559,-0.0054,0.00771,0.19884
1790616488.1741261,-0.0161,0.01408,-1.00137,0.00493,0.00369,0.22167
1790616488.293689,-0.02223,0.01752,-0.9989,0.00722,0.00281,0.19457
1790616488.3950698,0.00568,0.01551,-0.99875,0.00634,0.00433,0.15939
1790616488.494829,0.01742,0.01935,-0.99966,0.00437,-0.00061,0.16513
1790616488.595561,-0.0027,0.09094,-1.0008,0.00066,0.00553,0.01571
1790616488.695364,-0.01177,0.02657,-1.00103,0.00451,0.00145,-0.01316
1790616488.813809,-0.01118,0.02104,-0.99979,0.00514,0.00532,-0.00907
1790616488.91387,-0.00958,0.01668,-0.99961,0.00725,0.00385,-0.00916
1790616489.014272,-0.01302,0.00022,-0.9989,0.00505,0.00781,0.01731
1790616489.113981,-0.01491,0.00386,-1.00067,0.00487,0.00393,0.01682
1790616489.213838,-0.0177,0.00184,-1.00097,0.00536,0.00126,0.02397
1790616489.3357482,-0.01894,0.00877,-0.99944,0.00411,0.00236,0.01947
1790616489.433742,7e-05,0.00796,-1.00182,0.00704,0.00645,0.00509
1790616489.534451,-0.01533,0.01074,-1.00135,0.00449,0.0057,0.01317
1790616489.634104,-0.01439,0.00396,-1.00092,0.00385,0.0036,0.0175
1790616489.734146,-0.01095,0.01323,-1.00166,0.00564,0.00132,0.00977
1790616489.8539379,-0.00948,0.01515,-1.00152,0.0044,0.00589,0.00523
1790616489.954224,0.19365,0.01214,-1.00407,0.01657,0.04192,0.0405
1790616490.0556521,0.23368,-0.00647,-1.01131,-0.00809,-0.01766,0.05023
1790616490.154783,-0.02157,0.01434,-0.99926,-0.04253,-0.03811,-0.00513
1790616490.256036,-0.15449,0.06428,-0.98338,-0.05208,0.00903,-0.01239
1790616490.373861,-0.08205,0.01058,-0.98601,0.04434,0.00592,-0.01311
1790616490.473854,0.05982,-0.00902,-0.99075,0.01624,0.01415,-0.00345
1790616490.573815,0.06069,-0.03246,-0.9841,0.04371,-0.01484,0.06084
1790616490.674922,-0.03596,0.00562,-1.00932,0.00317,-0.02228,0.00429
1790616490.793746,-0.08125,0.02646,-1.00499,0.02105,0.00015,0.01021
1790616490.893722,-0.04409,-0.0064,-1.00634,-0.0117,0.01489,-0.0272
1790616490.994993,0.03874,0.02155,-1.00703,0.00263,0.0133,-0.0245
1790616491.095762,0.02863,0.0208,-1.02972,0.01279,-0.00259,-0.01912
1790616491.2158248,-0.03458,-0.0077,-0.99793,0.00571,-0.00193,0.05167
1790616491.314406,-0.01778,0.02682,-0.95231,-0.00853,0.05982,-0.00832
1790616491.413877,0.00772,0.02396,-0.99281,0.0185,0.01971,-0.0377
1790616491.5139909,-0.08772,0.01037,-1.00776,0.00242,-0.00635,0.01557
1790616491.6337678,-0.07935,-0.00267,-0.98955,0.00447,0.01759,0.00856
1790616491.733623,-0.02027,0.02172,-0.99842,0.00651,0.00242,-0.01006
1790616491.833798,-0.00262,0.00462,-0.99446,0.01404,0.00223,0.01374
1790616491.933768,-0.00582,0.02154,-1.00205,0.00264,-0.00027,-0.00515
1790616492.0537841,-0.03697,0.00855,-1.00665,0.00489,0.00244,-0.01978
1790616492.15436,-0.02871,0.02672,-1.00022,-2e-05,0.00917,0.00086
1790616492.253862,0.00742,0.00311,-1.00279,0.00479,0.00431,-0.00447
1790616492.3737202,0.02224,0.01729,-1.00388,0.00682,0.00915,0.04047
1790616492.473932,-0.00863,0.04522,-1.0004,0.00552,0.00277,-0.0585
1790616492.573914,-0.01729,0.01683,-1.0053,0.00288,-0.00639,0.04136
1790616492.69398,-0.08306,-0.04841,-0.99885,0.01302,0.01561,0.03472
1790616492.793706,-0.02702,-0.00349,-1.00139,0.0057,0.00365,0.01954
1790616492.894621,-0.00951,0.01731,-1.00184,0.00282,0.00311,-0.00262
1790616492.993987,-0.00709,0.01453,-1.0021,0.004,0.00515,0.0028
1790616493.115859,-0.00593,0.01114,-1.00261,0.00581,0.00163,0.00349
1790616493.2155771,-0.00466,0.01318,-1.00181,0.00638,0.00275,0.00522
1790616493.315753,-0.00322,0.01449,-1.00201,0.00505,0.00271,0.00198
1790616493.433735,-0.0111,0.00412,-1.00236,0.00545,0.00666,0.03746
1790616493.533622,-0.00869,0.03246,-1.00103,0.00524,0.00254,-0.01265
1790616493.63369,-0.00301,0.02855,-1.00275,0.00249,0.00433,-0.02494
1790616493.733858,-0.00934,0.00685,-1.002,0.00718,-0.00047,0.00857
1790616493.8547578,-0.00973,0.00236,-1.00321,0.00598,0.00314,0.01426
1790616493.954112,-0.00904,0.00933,-1.00302,0.0022,0.00365,0.01192
1790616494.0739908,-0.00668,0.00918,-1.00207,0.00531,0.00118,0.0098
1790616494.17405,-0.00772,0.01252,-1.00011,0.00615,0.00423,0.00595
1790616494.2739022,-0.00618,0.01161,-1.00069,0.00288,0.00249,0.00997
1790616494.37385,-0.00731,0.011,-1.00308,0.00573,0.00273,0.01059
1790616494.474057,-0.00686,0.01322,-1.00365,0.00683,0.00384,0.01251
1790616494.5938659,-0.00664,0.00469,-1.00189,0.00318,0.00618,0.02207
1790616494.693826,-0.01317,0.00697,-1.00032,0.00077,0.00351,0.01774
1790616494.81506,-0.00831,-0.00177,-1.00454,0.00364,0.00235,0.02373
1790616494.9338791,-0.0092,-0.00136,-1.00233,0.00478,0.00198,0.02652
1790616495.034098,-0.00744,0.00759,-1.00147,0.00677,0.00047,0.00636
1790616495.134449,-0.01322,-0.00146,-1.00237,0.00478,-0.00016,0.03657
1790616495.234391,-0.01197,-0.00101,-1.00212,0.00437,0.0028,0.02877
1790616495.3544,-0.01262,-0.00112,-1.00211,0.00134,0.00274,0.02964
1790616495.45469,-0.01126,5e-05,-0.99938,0.00515,0.00282,0.02971
1790616495.554454,-0.01212,-9e-05,-1.00167,0.00383,0.00146,0.03312
1790616495.6541,-0.01066,-0.00103,-1.00102,0.0033,0.00145,0.03258
1790616495.754782,-0.00587,0.01694,-1.00396,0.00532,0.00336,-0.00176
1790616495.875943,0.00127,0.02425,-0.9998,0.00682,0.00527,0.00226
1790616495.976187,-0.00128,0.02006,-1.00191,0.00421,-0.00142,0.00232
1790616496.094004,-0.00328,0.01644,-1.00221,0.0008,0.00328,0.00821
1790616496.2137,-0.00487,0.01533,-1.00287,0.00623,0.0044,0.01661
1790616496.3139899,-0.02437,0.00406,-1.00201,0.00537,0.00703,0.01935
1790616496.416497,-0.00676,0.01591,-1.00194,0.00415,-0.00054,0.01031
1790616496.514577,-0.00457,0.01563,-1.00309,0.00463,0.00226,0.01508
1790616496.6337721,-0.00742,0.01495,-1.00261,0.00376,0.0052,0.00978
1790616496.734499,0.00088,0.00932,-1.00182,0.00485,0.00216,0.02572
1790616496.8340101,-0.01606,0.00704,-1.00204,0.007,0.00673,0.02341
1790616496.953745,-0.00973,0.00111,-1.00146,0.00516,0.00428,0.02773
1790616497.07663,-0.01035,-0.00441,-1.00075,0.00313,0.00777,0.0325
1790616497.175997,-0.01202,-0.00307,-0.99919,0.00616,0.01,0.02899
1790616497.2764,-0.01289,-0.00378,-1.001,0.00318,0.00639,0.02928
1790616497.393717,-0.01478,-0.00419,-1.00011,0.00159,0.00699,0.0288
1790616497.493643,-0.01202,-0.00381,-1.00086,0.00192,0.00481,0.0307
1790616497.5936608,-0.01404,-0.00479,-1.00236,0.00187,0.00615,0.03207
1790616497.693686,-0.01501,-0.00554,-1.00096,0.00311,0.00357,0.0316
1790616497.794181,-0.01243,-0.00141,-1.00108,0.00622,0.00237,0.01751
1790616497.9151921,-0.00894,-0.00063,-1.00268,0.00217,0.00297,0.01235
1790616498.03374,-0.01338,-0.00446,-1.00113,0.00326,0.00162,0.02184
1790616498.134621,-0.01426,-0.00705,-1.001,0.00807,0.00217,0.02505
1790616498.234057,-0.00895,0.00081,-1.00261,0.00313,0.00269,0.00351
1790616498.3539908,-0.0126,-0.01194,-1.0016,0.00457,0.00062,0.02045
1790616498.4743528,-0.01186,0.00436,-1.00122,0.0082,-0.00034,0.02986
1790616498.573996,-0.01024,0.0004,-1.0009,0.00597,0.00283,0.02984
1790616498.674315,-0.01019,0.00135,-1.00052,0.00414,0.00102,0.03438
1790616498.794085,-0.01167,0.00149,-1.00302,0.0043,0.00081,0.03499
1790616498.893944,-0.00745,0.00625,-1.00243,0.0029,0.0126,-0.00319
1790616498.993885,-0.01046,0.00665,-1.00348,0.00291,0.00536,0.02457
1790616499.113997,-0.00983,0.0033,-1.00163,0.00487,0.00264,0.03275
1790616499.213792,-0.01218,-0.00161,-1.00004,0.00403,0.00646,0.03821
1790616499.333737,-0.02074,-0.00785,-1.0013,0.00589,-0.00188,0.04274
1790616499.433724,-0.01214,0.00186,-1.00125,0.00776,0.0038,0.0341
1790616499.53394,-0.01084,-0.00178,-1.00053,0.00361,0.00392,0.03563
1790616499.633891,-0.01287,-0.00368,-1.00065,0.0044,0.00253,0.03861
1790616499.753726,0.12096,0.3337,-0.96833,-0.06045,-0.00801,-1.33942
1790616499.853636,0.02072,0.04287,-1.00656,0.01668,-0.01383,-0.90439
1790616499.953996,-0.00352,0.04008,-1.00824,0.00063,0.00133,-0.99314
1790616500.0541341,0.02333,0.0368,-1.00083,0.0066,0.02227,-1.02272
1790616500.1740642,-0.00835,-0.00237,-1.00388,-0.01613,0.01,-0.95934
1790616500.2743511,-0.00614,-0.04568,-1.01655,-0.01974,-0.01337,-0.96099
1790616500.373972,-0.00642,0.00358,-1.01387,-0.00048,0.0132,-1.01829
1790616500.4753358,0.01062,0.04574,-1.00609,0.0313,0.01248,-1.07576
1790616500.5936909,-0.00248,-0.01025,-1.00941,0.02066,0.00825,-1.03624
1790616500.6936698,-0.01059,-0.00092,-1.00347,-0.04899,0.01755,-1.05972
1790616500.793814,0.00728,0.01486,-0.99408,0.00336,0.00986,-1.06505
1790616500.91386,0.0058,0.0284,-1.00156,-0.01109,0.01293,-1.05008
1790616501.0139189,0.00066,-0.02206,-1.00549,0.0286,0.01209,-1.05565
1790616501.1351402,-0.02361,0.01434,-1.01541,-0.09785,0.03591,-1.04998
1790616501.235106,-0.00747,-0.0075,-0.99925,-0.00531,0.02387,-1.0445
1790616501.3538392,-0.00155,0.00767,-1.01108,-0.00445,0.01671,-1.01972
1790616501.453621,0.00019,0.01019,-0.99189,0.03148,0.01382,-1.01292
1790616501.553752,-0.01,0.00301,-0.98707,0.00989,0.02602,-1.03275
1790616501.653792,-0.01775,-0.03215,-1.01542,-0.01717,0.02209,-0.97352
1790616501.753643,0.00491,-0.01799,-1.00072,0.00138,0.00807,-1.02214
1790616501.854086,-0.00577,0.00261,-1.01128,0.00135,0.02655,-1.03729
1790616501.975529,0.01043,0.05192,-1.00638,0.02092,0.00369,-1.08231
1790616502.073527,-0.00902,-0.01813,-1.00771,0.01208,-0.00056,-1.0288
1790616502.1758358,-0.01534,-0.01241,-1.00508,-0.0244,0.00625,-1.05164
1790616502.293719,-0.0078,-0.00452,-1.01013,0.01044,-0.0122,-0.97768
1790616502.393856,-0.00682,0.03511,-0.99899,0.00103,0.04017,-0.81382
1790616502.513752,-0.02241,-0.03053,-1.00401,0.0162,0.0093,-0.6152
1790616502.613736,-0.01626,-0.02579,-1.00157,0.01292,-0.0006,-0.55459
1790616502.7138638,-0.008,0.01651,-0.99927,0.0192,0.00064,-0.37302
1790616502.8352199,-0.00518,0.00462,-1.00289,0.00901,0.00278,-0.31926
1790616502.935512,-0.01764,-0.0297,-1.00027,0.00869,0.00759,-0.26123
1790616503.036936,-0.04166,0.00458,-1.00155,-0.00347,-0.01076,-0.23342
1790616503.136144,0.00463,0.01146,-1.00579,0.00607,0.00958,-0.22901
1790616503.2351842,0.01718,0.00767,-1.00392,0.00441,0.00419,-0.19299
1790616503.3547,-0.03499,-0.04385,-0.99772,0.005,-0.00243,-0.05045
1790616503.455196,-0.02826,0.00824,-1.00217,0.00396,0.00478,0.0209
1790616503.555089,-0.01905,-0.00348,-1.00052,0.00746,0.00483,0.03009
1790616503.6755788,-0.01813,-0.00252,-1.00277,0.007,0.00103,0.02961
1790616503.7754612,-0.01301,-0.00042,-1.00252,0.00468,0.00341,0.02092
1790616503.875471,-0.0196,-0.00327,-1.00125,0.00827,0.00038,0.02749
1790616503.9946618,-0.01653,-0.00784,-1.00122,0.006,0.00523,0.02739
1790616504.0949519,-0.01738,-0.00847,-0.99993,0.00417,0.00484,0.03008
1790616504.1966689,-0.0186,-0.01254,-1.00297,0.00635,0.00259,0.03603
1790616504.295115,-0.01912,-0.01349,-1.00475,0.0021,0.00225,0.03116
1790616504.398023,-0.02095,-0.00976,-1.00109,0.0034,0.00405,0.02254
1790616504.496856,-0.01789,-0.00999,-1.00122,0.00342,0.00503,0.02164
1790616504.5975108,-0.0169,-0.00892,-1.00068,0.00231,0.00043,0.01962
1790616504.7147331,-0.01841,0.00028,-1.00022,0.00394,-0.00604,0.01363
1790616504.8360279,0.09019,0.00045,-0.99419,-0.01921,0.03285,-0.0683
1790616504.955565,0.21,0.03666,-0.99867,-0.01176,-0.01371,0.03793
1790616505.075504,0.09189,-0.00019,-0.99714,0.01602,0.00488,-0.10305
1790616505.1755571,-0.07841,-0.04028,-1.02511,0.0104,-0.0541,0.03478
1790616505.296265,-0.12838,-0.00498,-1.01827,-0.01485,-0.04851,-0.00366
1790616505.397773,-0.02505,0.00967,-0.99934,-0.00088,0.00707,-0.0085
1790616505.500918,0.04294,0.00822,-0.99798,0.0259,0.02724,0.00062
1790616505.599424,0.0509,0.06042,-0.99965,0.02911,0.0266,-0.06264
1790616505.7157602,-0.05096,-0.02481,-1.00682,-0.0061,0.01335,0.01929
1790616505.815636,-0.03853,0.0344,-1.02533,-0.00582,0.0194,-0.00158
1790616505.936276,0.0334,0.03366,-0.98667,-5e-05,0.01975,-0.0347
1790616506.036702,0.0152,-0.08497,-0.99323,0.08497,0.00838,0.01576
1790616506.155693,-0.01701,-0.02349,-0.99653,-0.01546,-0.01754,-0.05835
1790616506.255808,-0.03031,0.1531,-1.00541,0.01479,0.0022,-0.0315
1790616506.356055,-0.03227,0.02706,-0.97909,0.03813,-0.00642,-0.01077
1790616506.4772322,-0.08895,-0.04733,-0.99415,0.02299,-0.00376,0.06115
1790616506.575496,-0.09744,0.03276,-0.9847,0.00299,0.01156,-0.00261
1790616506.675644,-0.05411,-0.00593,-0.99699,-0.01121,0.01866,0.01647
1790616506.7967649,0.00346,0.00704,-0.99409,0.00705,0.0084,0.00029
1790616506.915574,0.02809,0.00877,-1.00441,0.00634,-0.01047,-0.01169
1790616507.015531,-0.01528,-0.00472,-1.00423,-0.01648,-0.00553,-0.00223
1790616507.115903,-0.05307,-0.00129,-1.00295,0.00122,0.00058,0.01779
1790616507.215879,-0.0318,0.01082,-1.00205,0.01163,0.00151,0.00621
1790616507.3357482,-0.02389,0.03356,-1.00189,-0.00244,0.00523,0.00738
1790616507.435474,-0.04215,0.00434,-1.00135,0.00726,0.00423,0.00268
1790616507.53565,-0.02566,0.00525,-1.0001,0.00375,0.00163,0.00895
1790616507.635745,-0.01037,0.00919,-0.99963,0.00666,0.00422,0.00069
1790616507.755925,-0.00592,0.00761,-1.00135,0.00505,0.00032,0.00412
1790616507.8757179,-0.00557,0.00716,-1.00088,0.00559,0.0045,0.00511
1790616507.975936,-0.00605,0.0072,-1.00073,0.00435,0.00414,0.00411
1790616508.075855,-0.01993,0.00162,-1.00442,0.00568,0.00732,-0.01527
1790616508.196464,-0.00502,0.0046,-1.00235,0.00233,-0.00148,0.02114
1790616508.29684,-0.02131,-0.00699,-1.00397,0.00418,0.00236,0.01614
1790616508.415529,-0.00643,-0.00498,-1.00119,0.00497,-9e-05,0.02081
1790616508.515899,-0.0073,0.01446,-1.00161,0.00237,0.00516,0.0083
1790616508.635477,0.00147,0.01529,-1.00054,0.00142,0.00462,-0.00781
1790616508.7356339,-0.01147,0.01376,-1.0008,0.00385,0.00228,-0.00366
1790616508.835797,-0.00177,0.01323,-1.00129,0.0016,0.00267,-0.00962
1790616508.957875,-0.00471,0.01987,-0.9999,0.00308,-0.00291,-0.03655
1790616509.0571232,-0.01732,-0.01627,-1.00141,0.00729,0.00141,0.04659
1790616509.1757178,-0.01366,-0.00723,-1.00074,0.00259,0.00426,0.03258
1790616509.275585,-0.01274,-0.01036,-0.99957,0.00208,0.00314,0.02788
1790616509.397402,-0.01184,-0.0018,-1.00188,0.00425,0.00172,0.02324
1790616509.498218,-0.00759,0.00738,-1.00272,0.0032,0.00525,-0.0085
1790616509.5982752,-0.01252,0.00935,-1.00041,0.00671,0.004,0.01593
1790616509.69627,-0.00902,0.00624,-1.00096,0.0019,0.00321,0.00678
1790616509.8156958,-0.00871,0.00937,-1.00231,0.00658,0.00207,0.00881
1790616509.915582,-0.01496,-0.00016,-1.00182,0.00365,0.00318,0.03484
1790616510.0157282,-0.01364,-0.00397,-1.00215,0.00268,0.00329,0.02992
1790616510.115564,-0.01359,-0.00491,-1.00084,0.00727,0.00016,0.02832
1790616510.2158961,-0.00693,0.01476,-1.00149,0.00285,0.00207,-0.00114
1790616510.335605,-0.00553,0.00964,-1.00166,0.00772,0.00471,0.02212
1790616510.4355671,-0.00883,0.00017,-1.00299,0.00452,0.0003,0.01724
1790616510.5356631,-0.00289,0.01533,-1.00158,0.00331,0.00396,-0.01549
1790616510.655684,-0.01407,-0.00875,-1.00228,0.00606,0.00226,0.02344
1790616510.756256,-0.01689,-0.01674,-1.00051,0.005,0.00298,0.02737
1790616510.876199,-0.01309,-0.00857,-1.00126,0.00809,0.00321,0.03018
1790616510.9762838,-0.01724,-0.00873,-1.00108,0.00756,0.00191,0.02958
1790616511.096689,-0.01218,0.01806,-1.00179,0.00497,-0.00015,-0.01037
1790616511.199109,-0.00077,0.01758,-1.00413,0.0034,0.00347,-0.00466
1790616511.2983491,-2e-05,0.01858,-1.00181,0.00105,0.00365,-0.0148
1790616511.418941,0.0012,0.02427,-1.00109,-0.00033,0.00253,-0.05126
1790616511.519958,-0.02485,-0.01374,-1.00032,0.00794,-0.00083,0.03541
1790616511.61877,-0.00977,-0.00028,-0.99978,0.00264,0.00334,0.01221
1790616511.720014,-0.00596,0.01461,-1.00222,0.00267,0.00435,-0.00014
1790616511.817929,0.00513,0.03362,-1.0006,0.00207,0.01021,-0.04535
1790616511.9374678,-0.00209,0.03251,-1.00025,0.00314,0.00418,-0.04286
1790616512.0384388,-0.00225,0.019,-1.0006,0.00584,0.00047,-0.01837
1790616512.139233,-0.00518,0.01412,-1.0014,0.00555,-0.00147,-0.01736
1790616512.238574,-0.00622,0.01657,-0.99998,0.00149,0.00227,-0.0149
1790616512.3593102,-0.00517,0.01417,-0.9999,0.00341,0.00417,-0.01187
1790616512.459699,-0.00725,0.00815,-1.00095,0.00412,0.00197,-0.0043
1790616512.57863,-0.00969,0.00126,-1.00239,0.00502,0.00319,0.01129
1790616512.678752,-0.01404,-0.00958,-0.99901,0.00769,0.00573,0.02643
1790616512.778852,-0.01415,-0.00942,-1.00074,0.0017,0.00901,0.02187
1790616512.8984032,-0.01445,-0.01076,-0.99876,0.00454,0.00594,0.02934
1790616512.998466,-0.01611,-0.01352,-1.00364,0.00563,0.00236,0.03763
1790616513.098905,-0.01662,-0.01466,-1.00104,0.00354,0.00242,0.04031
1790616513.1988878,-0.01697,-0.01341,-1.0007,0.00867,0.00265,0.04219
1790616513.319922,-0.01219,-0.00691,-1.00254,0.00302,0.00156,0.03671
1790616513.438654,-0.01375,-0.00642,-1.00209,0.00454,0.00317,0.04025
1790616513.560284,-0.01439,-0.00683,-1.00244,0.005,0.00058,0.03508
1790616513.662633,-0.00678,0.01291,-1.00081,-0.0032,0.00736,-0.01536
1790616513.760994,0.00281,0.01804,-1.00296,0.00123,0.00489,-0.00559
1790616513.881946,-0.00284,0.02002,-1.00079,0.005,0.00272,-0.015
1790616513.980693,-0.00046,0.02993,-1.0011,0.00141,0.00224,-0.02574
1790616514.1005728,-0.00245,0.02632,-1.00011,0.00398,0.00283,-0.02394
1790616514.20056,0.00034,0.02859,-1.00205,-0.00072,0.00606,-0.03013
1790616514.300467,-0.00371,0.02411,-1.00325,0.00314,0.00343,-0.02914
1790616514.400656,-0.00085,0.02756,-1.00396,0.00098,0.00173,-0.0336
1790616514.500424,-0.02568,0.03311,-1.00079,0.00153,-0.00162,-0.00691
1790616514.6008189,0.01146,0.02229,-1.00053,0.00871,6e-05,-0.01555
1790616514.703032,-0.00513,0.01268,-1.00315,0.00421,0.00649,-0.01194
1790616514.8215208,-0.00501,0.01858,-1.00272,0.00434,-0.00045,-0.02222
1790616514.921698,0.00169,-0.00718,-0.99906,0.0073,-0.00285,0.02901
1790616515.023477,-0.0186,-0.01166,-1.00218,0.00825,-0.00065,0.02888
1790616515.124506,-0.01035,-0.01006,-1.00051,0.00405,0.00563,0.0287
1790616515.2415879,-0.0147,-0.01162,-1.00038,0.00504,0.00662,0.03282
1790616515.3485062,-0.01625,-0.01256,-1.001,0.00504,0.00707,0.0272
1790616515.448289,-0.0169,-0.01124,-1.00157,0.00613,0.00512,0.02257
1790616515.543023,-0.01481,-0.0093,-0.99953,0.00395,0.00566,0.01843
1790616515.647174,0.00088,0.00095,-1.00101,0.01507,0.00682,-0.00044
1790616515.765852,-0.00741,0.0088,-1.0004,0.0027,0.00114,-0.01214
1790616515.884928,-0.00769,0.01804,-1.00181,0.00291,-0.00099,-0.01908
1790616515.986374,-0.0034,0.01914,-1.00106,0.00281,0.00106,-0.0261
1790616516.0882828,-0.00082,0.03051,-1.00348,-0.00146,-0.00137,-0.04531
1790616516.202635,-0.01385,-0.00354,-1.00202,0.00703,-0.00495,-0.01283
1790616516.302454,0.01745,0.02876,-1.00219,0.00394,0.00399,-0.02095
1790616516.423237,-0.00295,0.01821,-1.0,0.0053,0.00415,-0.01616
1790616516.5260532,-0.00923,0.02655,-1.00251,0.00545,-0.00277,-0.02998
1790616516.622324,-0.00416,0.01294,-1.00063,-0.00119,0.00436,-0.01797
1790616516.746185,-0.00417,0.01577,-1.00127,0.00636,0.00179,-0.02041
1790616516.845622,-0.00575,0.01746,-1.00285,0.00285,0.00292,-0.02135
1790616516.9626439,0.00231,0.02928,-1.00402,0.00445,0.0021,-0.06248
1790616517.0627232,-0.01778,-0.01382,-1.00167,0.00746,0.00601,0.02262
1790616517.184022,-0.01206,-0.00401,-1.00186,0.00498,0.00391,0.01492
1790616517.3026261,-0.01399,0.0091,-1.00249,0.00319,0.0091,-0.00183
1790616517.4024441,-0.00665,0.02207,-1.00311,0.0048,-0.00427,-0.02191
1790616517.502597,-0.00363,0.01374,-1.00344,0.00241,-0.00519,-0.02629
1790616517.60637,-0.00428,0.02168,-1.00246,0.00754,0.00103,-0.03131
1790616517.722368,-0.00581,0.01623,-1.00213,0.00523,-0.00066,-0.02705
1790616517.8226402,-0.00759,0.00949,-1.00141,0.00523,-0.00306,-0.02216
1790616517.9244092,-0.00824,0.00054,-1.00061,0.00554,-0.00928,-0.01106
1790616518.02515,-0.02298,0.01892,-1.00241,-0.0065,-0.01327,-0.01862
1790616518.144563,-0.00849,0.00102,-1.00134,0.00433,0.00423,-0.00933
1790616518.2486348,-0.00742,0.01276,-1.00182,0.00645,0.00647,-0.01093
1790616518.362551,-0.01889,-0.01457,-0.99981,0.00889,0.00492,0.02894
1790616518.462542,-0.00759,0.01927,-1.00167,0.00109,0.00853,0.01048
1790616518.564636,-0.00615,0.00996,-1.00122,0.00052,0.00183,0.00447
1790616518.6823769,-0.00596,0.0125,-1.00205,0.00119,0.00709,0.0065
1790616518.783874,-0.00666,0.00324,-1.00067,0.00696,0.00687,0.00052
1790616518.9037251,-0.00523,0.01269,-1.0043,0.00314,0.00333,-0.0016
1790616519.003575,-0.0076,0.01238,-1.00088,0.00422,0.00047,0.02428
1790616519.103966,-0.00399,0.01109,-1.0033,0.0027,0.00909,0.00895
1790616519.2247412,-0.02663,0.01956,-1.00487,0.00216,-0.01595,-0.01569
1790616519.323819,0.00477,0.01833,-1.00298,-0.00129,0.00019,-0.04486
1790616519.426019,-0.00055,0.02137,-1.00136,0.00285,0.00017,-0.01519
1790616519.543835,-0.02271,-0.01656,-0.99228,-0.01171,0.02787,-1.10809
1790616519.645761,0.00826,0.02144,-1.00176,0.01083,0.01795,-0.88599
1790616519.7657862,0.01584,-0.0109,-1.00139,0.00746,-0.00223,-0.98233
1790616519.8647182,0.01273,0.01832,-1.00462,0.01697,0.0056,-1.00958
1790616519.963748,0.00037,0.03759,-1.00448,0.02454,0.01115,-1.0122
1790616520.066064,0.00258,0.00687,-0.98843,0.00048,0.00569,-1.04232
1790616520.163811,0.01727,0.01229,-1.01827,-0.00497,-0.00814,-1.0531
1790616520.2834759,0.02053,0.02582,-0.99383,0.01272,0.01373,-1.07543
1790616520.3835561,-0.0099,0.0015,-1.00099,0.00811,0.03743,-0.97046
1790616520.483535,0.01213,0.0271,-0.98769,-0.0086,0.04103,-0.99346
1790616520.6066,-0.05147,-0.15185,-1.02072,0.00803,0.02462,-0.63996
1790616520.7088299,0.0022,-0.02116,-1.01064,-0.00178,-0.00244,-0.79601
1790616520.825561,0.01834,0.03706,-0.99993,0.00668,-0.00377,-0.73263
1790616520.9234219,-0.01013,-0.02001,-0.99707,0.00441,-0.00383,-0.41891
1790616521.023527,-0.02642,-0.02354,-0.99824,-0.0079,0.02022,-0.27816
1790616521.146115,-0.00902,-0.00783,-1.00313,0.01796,0.00647,-0.30714
1790616521.2437649,-0.01915,-0.01233,-1.00077,0.00916,0.00093,-0.26663
1790616521.364697,-0.01048,-0.01317,-1.00194,0.00019,0.00893,-0.18693
1790616521.463721,0.00456,0.02897,-1.0011,-0.00035,-0.00062,-0.23374
1790616521.583238,-0.01278,0.04655,-1.00169,-8e-05,0.00512,-0.20545
1790616521.685601,-0.00913,-0.01946,-1.00156,0.01026,0.00779,-0.14766
1790616521.808162,-0.01325,-0.06007,-1.00063,0.0049,-0.00628,-0.04007
1790616521.9080372,-0.01338,0.00766,-1.00178,0.00467,0.00631,0.01643
1790616522.0076559,-0.01325,0.00695,-1.001,0.00394,0.00407,0.02723
1790616522.123361,-0.01233,-0.00251,-1.0006,0.00563,0.00444,0.0294
1790616522.223665,-0.01102,-0.00568,-0.99961,0.00726,0.00922,0.01509
1790616522.320931,-0.00729,0.00098,-0.99898,0.00283,0.00126,0.00273
1790616522.426348,-0.00689,0.00914,-1.00312,0.0053,0.00203,-0.01284
1790616522.547106,-0.00031,0.00394,-1.00514,0.00964,-0.00304,-0.01031
1790616522.663444,-0.01599,-0.01572,-0.99993,0.01264,0.00734,0.03731
1790616522.766013,0.07021,-0.01187,-1.00097,0.00235,0.01302,0.01701
1790616522.865941,0.27189,0.05375,-0.99925,-0.02207,-0.00311,-0.26254
1790616522.966063,0.0926,0.01603,-1.02453,-0.0091,-0.03555,-0.01515
1790616523.0834079,-0.07595,0.0002,-0.96657,0.01184,0.01289,0.02333
1790616523.183459,-0.11692,-0.00463,-0.98372,0.01582,0.02219,0.03218
1790616523.308887,0.02386,0.06531,-0.98528,0.01715,0.02023,-0.01119
1790616523.403619,0.08839,0.0457,-0.97535,0.01617,0.06451,-0.01627
1790616523.5245,-0.04558,0.00859,-1.02688,0.00204,-0.0112,0.00176
1790616523.6234539,-0.07065,-0.01051,-1.02297,-0.01068,0.01594,0.03426
1790616523.725468,-0.01193,-0.02475,-0.99229,0.03966,0.03555,0.06472
1790616523.844022,0.03228,-0.00949,-0.98136,0.01361,-0.01092,0.02774
1790616523.944318,0.00789,-0.00391,-0.9898,-0.00687,-0.00017,0.0166
1790616524.0433862,-0.0098,0.04234,-1.01395,0.01055,-0.02477,-0.0082
1790616524.146081,-0.01367,0.02297,-1.01086,0.03227,0.0013,-0.00715
1790616524.246717,-0.01819,0.02429,-1.01121,-0.00382,0.00105,-0.01749
1790616524.363957,-0.04885,0.00596,-0.99833,0.00794,-0.00368,0.04676
1790616524.4662988,-0.31249,0.02918,-1.00179,0.00797,0.03574,-0.00198
1790616524.563801,-0.07617,0.03333,-1.01034,-0.00026,-0.0389,-0.02771
1790616524.6856608,-0.00518,0.02405,-1.00034,0.00643,-0.01178,-0.00325
1790616524.783764,-0.20803,0.02782,-1.00223,0.00116,-0.00707,-0.03058
1790616524.88495,-0.13091,0.0292,-1.01829,-0.06386,0.03392,-0.02291
1790616524.987208,0.08406,0.01636,-1.0146,-0.00202,0.03191,-0.01596
1790616525.08361,0.1244,0.01044,-1.00182,-0.01739,0.01314,-0.01128
1790616525.2062469,-0.02596,0.00532,-0.99949,0.00723,-0.00866,0.02695
1790616525.3038552,-0.08473,0.02467,-0.99785,-0.00603,0.02946,-0.0313
1790616525.423508,-0.03027,0.01866,-0.99902,-0.03336,-0.00863,-0.03832
1790616525.523411,0.03684,0.01131,-0.9984,0.02013,0.00015,0.01202
1790616525.6235971,-0.02268,0.0266,-1.00478,0.01579,-0.01023,-0.01174
1790616525.745564,-0.05111,0.01937,-0.99672,-0.03144,0.0004,-0.01125
1790616525.8455338,-0.00606,0.01899,-1.00963,0.04488,-0.01242,0.00717
1790616525.943497,0.00075,-0.00176,-0.97892,0.00559,0.01081,0.04785
1790616526.044113,-0.0013,0.01338,-1.00066,0.00653,-0.01217,0.00037
1790616526.143688,-0.02417,0.0088,-1.00067,0.01969,0.00457,-0.00568
1790616526.269242,-0.02224,0.03228,-0.98818,0.00301,0.01642,-0.03458
1790616526.383297,-0.0068,0.00212,-0.98722,-0.00861,0.0012,0.02129
1790616526.483704,0.01433,0.01803,-1.00521,0.02847,0.00733,-0.0294
1790616526.583609,-0.00411,0.01502,-1.01659,0.00045,0.00849,-0.01096
1790616526.684711,-0.01953,0.01131,-1.00414,-0.02355,0.02238,-0.0111
1790616526.8040981,-0.01769,-0.0093,-0.9929,-0.02274,0.01628,0.03958
1790616526.9040651,0.00252,0.00742,-1.01069,-0.01882,0.00207,0.00414
1790616527.005332,-0.00166,0.02672,-1.01923,0.01913,0.00681,-0.00636
1790616527.126484,-0.01478,0.00527,-1.00491,0.00873,0.00123,-0.02623
1790616527.243412,0.00407,0.02456,-1.00361,-0.0108,-0.00845,-0.00095
1790616527.3434901,0.17,-0.00248,-1.01631,0.01865,0.00436,0.0139
1790616527.443768,0.03199,0.02351,-1.00382,0.0062,-0.00703,-0.00965
1790616527.543479,0.00979,0.01012,-1.00159,0.00127,0.00219,0.00125
1790616527.66338,-0.00752,0.00942,-1.00384,0.0003,0.00278,0.00919
1790616527.766567,-0.01753,0.01171,-1.0008,0.00344,0.00054,0.00546
1790616527.865024,-0.01287,0.01143,-1.00046,0.0019,0.00463,0.00193
1790616527.963556,-0.00408,0.01156,-0.99993,0.00606,0.0013,0.00288
1790616528.066752,0.00051,0.01195,-1.00185,0.00382,0.00341,0.00238
1790616528.1833549,-0.00659,0.01234,-1.00027,0.00384,0.00298,0.00508
1790616528.2833338,-0.01112,0.03201,-1.00341,0.00791,0.00431,-0.0372
1790616528.4032772,-0.00305,0.00675,-1.00192,0.00604,0.00281,0.01012
1790616528.5036428,0.12757,0.00612,-1.00095,-0.00379,0.01489,0.01214
1790616528.607795,0.2131,-0.0073,-0.96763,0.04221,0.07144,-0.12108
1790616528.723274,0.04287,0.02317,-1.03423,-0.09063,-0.05237,0.03624
1790616528.8282099,-0.08995,0.02924,-0.98799,0.05656,-0.01056,0.0097
1790616528.943297,0.02111,-0.00796,-1.00739,0.00765,0.0001,0.05555
1790616529.043416,0.08004,0.0159,-1.01055,0.02169,-0.02319,0.0167
1790616529.143451,0.01336,0.05499,-0.97837,0.0056,0.00144,-0.04587
1790616529.27326,-0.06027,-0.00383,-1.00539,0.01539,0.00949,0.02932
1790616529.3838348,-0.0309,0.00364,-1.00232,0.00534,0.01234,0.03
1790616529.505315,0.00584,-0.00805,-1.00822,0.00772,0.01356,0.02677
1790616529.6038349,0.04383,0.01073,-1.00891,0.00143,0.04519,-0.00611
1790616529.704164,-0.02605,0.0106,-1.01384,0.04559,0.02036,-0.00128
1790616529.8263412,0.00032,0.02598,-0.98847,0.00763,0.01392,-0.00699
1790616529.926592,0.01015,0.02079,-0.9938,-0.00117,0.00755,-0.00349
1790616530.028032,-0.05938,0.01002,-0.99977,0.01414,-0.02272,0.03764
1790616530.127049,-0.08413,0.02438,-1.00061,0.00658,-0.00867,0.00224
1790616530.243449,-0.07456,0.0089,-1.01332,0.0082,-0.01191,-0.01793
1790616530.343553,-0.01218,0.01027,-1.00186,0.01414,0.00954,0.03007
1790616530.463169,0.00878,0.02282,-1.00394,0.0022,0.00161,0.02069
1790616530.565691,-0.00557,0.02481,-0.99183,0.00923,0.00368,-0.04583
1790616530.6642392,-0.01669,0.00066,-1.00092,0.00162,0.00049,-0.00485
1790616530.7833338,-0.03382,-0.01341,-1.00692,0.00062,-0.00451,0.04746
1790616530.8835762,0.0022,0.0115,-1.00131,0.01324,0.00999,0.03898
1790616531.0033312,0.01852,-0.00758,-1.00087,0.01106,0.00245,-0.02922
1790616531.103284,-0.04467,0.01728,-1.00918,-0.00418,0.01552,0.03376
1790616531.228253,-0.0026,0.01577,-0.99865,0.00845,0.03983,-0.0112
1790616531.32808,-0.03651,0.01052,-1.00093,0.00539,0.00638,0.00579
1790616531.4432251,-0.01936,0.00965,-1.00219,0.00337,0.00343,0.00309
1790616531.546247,-0.0042,0.00948,-1.00314,0.00461,0.00108,0.0031
1790616531.664633,-0.00421,0.0107,-1.00101,0.00227,-0.00139,0.0087
1790616531.769502,-0.00982,0.00951,-1.0011,0.00389,-0.00647,0.01029
1790616531.883704,-0.02506,0.00883,-1.00194,0.00236,-0.01997,0.0111
1790616532.0036328,0.01476,0.01796,-1.00223,0.00601,-0.02488,-0.00191
1790616532.103363,0.0022,-0.02611,-0.99979,0.00337,0.01106,0.00319
1790616532.2046359,-0.00614,-0.00212,-1.00395,0.0038,0.00544,0.01441
1790616532.323435,-0.00124,0.00896,-1.00089,0.00462,0.00425,0.00757
1790616532.4263391,0.01543,0.06488,-1.00328,0.01609,-0.00113,0.92207
1790616532.5232818,-0.00357,-0.00902,-0.98694,0.04123,0.01864,0.91766
1790616532.623879,0.03027,0.04288,-1.00428,0.00092,0.00605,0.90592
1790616532.7276,0.00166,0.00157,-0.99948,0.00588,-0.01516,1.07422
1790616532.824202,0.0048,0.01055,-1.019,-0.02162,-0.01178,1.08457
1790616532.9434109,-0.01534,-0.05011,-0.97827,0.02568,0.0161,1.10446
1790616533.045502,0.02416,0.0129,-1.00322,0.03258,-0.02053,0.99708
1790616533.1436641,0.00894,0.02558,-1.00418,-0.01024,-0.03171,1.04055
1790616533.243881,0.00711,0.01969,-1.00463,-0.0067,-0.00258,1.0825
1790616533.3653262,0.00131,0.01327,-0.99753,-0.00889,0.012,1.06243
1790616533.463736,-0.01903,-0.02542,-1.01067,0.03898,-0.01084,0.86519
1790616533.583214,0.01662,0.02837,-1.00073,0.00458,0.00576,0.72406
1790616533.68676,-0.00656,0.04157,-0.99431,-0.00887,0.00181,0.70039
1790616533.823345,0.00019,0.00353,-0.99761,0.01194,-0.0007,0.46988
1790616533.943656,-0.0123,-0.01987,-1.01464,-0.01613,0.01784,0.37836
1790616534.0437381,-0.00494,0.01423,-1.00154,-0.00399,0.02056,0.36753
1790616534.146019,0.02216,0.06105,-0.99878,0.01052,0.01651,0.21182
1790616534.2466922,-0.01656,0.00902,-1.00367,0.00778,-0.00684,0.21426
1790616534.364165,-0.02132,0.00035,-1.00165,0.01134,-0.00938,0.18546
1790616534.463626,-0.03382,0.00933,-1.00433,0.00537,-0.00072,0.18729
1790616534.585876,-0.00167,0.02924,-1.00091,-0.00131,-0.00068,0.18704
1790616534.687648,0.00559,0.02884,-0.99985,0.00571,0.00337,-0.0083
1790616534.803921,-0.00786,0.01622,-1.00064,0.00303,0.00373,0.00765
1790616534.9033852,-0.00747,0.015,-1.00241,0.00321,0.00736,-0.00103
1790616535.00548,-0.01025,0.00987,-0.99999,0.00391,-0.0028,-0.00506
1790616535.1035252,-0.00541,0.01884,-1.00168,0.00507,0.00267,-0.00444
1790616535.225909,-0.00997,0.01516,-1.00094,0.00273,0.00596,0.00088
1790616535.324481,-0.00489,0.01849,-1.00156,0.00461,0.00466,-0.00639
1790616535.4233,0.00526,0.03482,-1.00063,0.00788,-0.0061,-0.06656
1790616535.524781,-0.00516,0.00421,-1.00306,0.00203,0.00088,-0.00387
1790616535.625741,0.12068,-0.01521,-0.99527,-0.01197,0.04244,0.05649
1790616535.7432399,0.21228,-0.00089,-0.98255,0.03406,0.01922,0.13859
1790616535.8448482,0.0779,-0.00473,-1.03872,0.01121,-0.03715,-0.01197
1790616535.965176,-0.09163,0.01144,-0.97426,-0.05224,0.0307,0.01108
1790616536.087925,-0.11131,-0.02514,-1.00082,0.00688,0.00259,0.03385
1790616536.184319,-0.00587,-0.00973,-0.98515,0.04028,0.03759,0.03598
1790616536.304398,0.05646,0.00204,-1.00344,0.01254,-0.00983,-0.00757
1790616536.404568,0.00703,-0.13905,-1.02766,0.04686,-0.02467,0.15605
1790616536.524193,-0.04856,0.0103,-1.01098,0.01771,0.00737,0.01185
1790616536.6242502,-0.01734,0.01265,-1.01365,0.00736,0.01669,-0.01323
1790616536.746547,0.02899,0.04595,-1.02814,-0.00388,-0.06508,-0.02537
1790616536.8443468,-0.0174,-0.01834,-1.02068,-0.03424,-0.01267,0.0486
1790616536.944421,-0.02147,0.02636,-0.98497,-0.03186,0.02916,-0.04367
1790616537.064183,-0.02957,0.03248,-0.99132,0.03288,-0.01358,-0.02664
1790616537.164445,-0.02021,0.00303,-1.01195,-0.00741,0.00708,0.04214
1790616537.26527,-0.05711,0.00148,-1.00571,0.01133,-0.02469,0.03594
1790616537.3860748,-0.12009,0.00413,-0.99419,0.01301,0.00758,0.00863
1790616537.486799,-0.09081,0.00298,-1.01505,-0.00526,-0.00306,0.01466
1790616537.585003,0.00642,0.01468,-0.99693,0.02433,0.01151,-0.01026
1790616537.7049642,0.03888,0.01009,-1.00139,0.00875,-0.00333,0.00485
1790616537.824739,-0.02614,0.00011,-1.00629,-0.01718,0.00066,0.02301
1790616537.9254458,-0.05523,0.00787,-0.99853,-0.00018,0.00424,0.01225
1790616538.024378,0.03005,0.01318,-1.00053,0.00147,0.00964,0.00136
1790616538.124835,0.02053,0.01325,-0.99709,0.01039,0.00599,0.01477
1790616538.225266,-0.02678,-0.00065,-1.00452,0.01088,-0.00079,0.02717
1790616538.346594,-0.0476,0.01582,-1.00325,-0.00023,-0.00098,0.00841
1790616538.446669,-0.04396,0.0193,-1.00036,0.00357,0.00584,-0.00851
1790616538.564172,-0.02834,0.00863,-1.00154,0.00434,0.00527,-0.00125
1790616538.664156,-0.02268,0.0074,-1.0004,0.00241,0.00556,0.00406
1790616538.768747,-0.01772,0.00953,-1.00201,0.00558,0.00513,0.00497
1790616538.8858821,-0.01715,0.00903,-1.00391,0.00544,0.00645,0.0058
1790616538.985603,-0.01905,0.00895,-1.00257,0.00487,0.00283,0.0068
1790616539.0869818,-0.01825,0.0088,-0.99953,0.00398,0.00722,0.00358
1790616539.2053618,-0.02062,0.00721,-1.00193,0.00334,0.00297,0.00404
1790616539.304436,-0.02297,0.00588,-1.00241,0.00376,0.0031,0.00566
1790616539.425359,-0.02134,0.00826,-1.00181,0.0053,0.00416,0.004
1790616539.5252259,-0.04611,-0.11594,-1.0126,-0.01231,-0.03046,-0.89515
1790616539.647058,0.00767,0.06116,-1.0026,0.00822,-0.0018,-0.91436
1790616539.7480261,-0.0003,0.00548,-0.99389,0.02603,0.01413,-1.00144
1790616539.864203,-0.0141,0.01251,-1.00117,-0.02501,0.01747,-0.98322
1790616539.96559,-0.02701,-0.01895,-1.00495,-0.00035,0.01726,-0.96015
1790616540.066599,-0.00873,0.00355,-1.00519,0.01873,0.03385,-1.02732
1790616540.184855,-0.00357,-0.01042,-0.99994,0.00564,0.01288,-1.08631
1790616540.284329,0.01199,0.01861,-0.99399,-0.02929,0.02488,-1.08188
1790616540.404416,0.00242,0.0253,-0.99996,-0.01177,-0.00149,-1.08252
1790616540.505675,-0.01119,0.00408,-1.00543,0.00452,0.01943,-0.99682
1790616540.624469,7e-05,0.0065,-1.0023,0.01579,0.00951,-0.90631
1790616540.724278,-0.00809,0.00274,-0.97906,-0.01456,0.02326,-0.79295
1790616540.845448,-0.00728,-0.02495,-1.00103,0.01212,0.0055,-0.6118
1790616540.951871,-0.02164,0.0055,-1.00332,0.00337,0.0175,-0.49464
1790616541.065066,-0.02182,-0.02217,-0.99804,-0.00464,-0.01349,-0.41292
1790616541.164829,0.01459,0.00693,-1.00307,0.01122,0.00776,-0.34068
1790616541.2700648,-0.00174,0.01821,-1.00132,0.00436,-0.00043,-0.22186
1790616541.365578,-0.03351,-0.00615,-1.00202,0.0064,0.00484,-0.21466
1790616541.4643729,-0.02316,-0.0497,-1.00514,0.00766,0.00718,-0.17412
1790616541.565143,-0.00193,-0.00447,-1.00467,0.00559,0.00155,-0.19357
1790616541.685571,0.00847,0.01,-1.00339,0.00204,-0.00107,-0.19615
1790616541.809494,-0.01597,0.00478,-0.99765,0.00375,-0.00753,-0.10364
1790616541.904335,-0.02853,-0.01126,-1.0005,0.00234,0.00199,-0.01649
1790616542.024378,-0.01481,0.01489,-1.00331,0.00133,0.00585,-0.01841
1790616542.124287,-0.00814,0.00647,-1.00259,0.00299,-0.00035,-0.01315
1790616542.224282,-0.00981,0.00076,-1.00144,0.00077,0.00555,-0.00246
1790616542.3448918,-0.01055,-0.00104,-1.0014,0.00335,0.00172,-0.00385
1790616542.445128,-0.01139,0.00074,-1.00153,0.00596,0.00432,-0.0073
1790616542.546242,-0.0072,-0.00017,-1.00332,0.00718,-0.00539,-0.01556
1790616542.644174,-0.02223,0.0255,-1.00383,0.00292,-0.00242,-0.048
1790616542.77677,-0.00781,0.00598,-1.00072,0.00216,0.00197,-0.01082
1790616542.8841972,-0.00752,-0.00166,-1.00048,0.00284,0.00222,-0.00456
1790616542.9852958,-0.01016,-0.00185,-1.00011,0.00419,0.00477,-0.0041
1790616543.084044,-0.00757,0.00042,-1.00215,0.006,0.00542,-0.00385
1790616543.185308,0.2259,0.02985,-1.01033,-0.04376,0.05668,-0.07351
1790616543.306516,0.16866,-0.02302,-0.9979,-0.01524,-0.01512,-0.06283
1790616543.405827,-0.00645,0.02442,-0.99721,-0.02797,-0.05181,-0.01072
1790616543.505541,-0.13664,0.01385,-0.99828,0.01354,-0.02156,-0.03938
1790616543.606199,-0.0594,-0.00556,-0.99549,-0.03387,0.02168,0.03157
1790616543.7090712,0.05593,0.01338,-1.02103,-0.01035,0.02221,-0.00217
1790616543.8247879,-0.05268,-0.05719,-1.02203,-0.00938,-0.0261,0.07747
1790616543.945378,-0.05806,0.0123,-0.98272,0.02559,0.00933,-0.00623
1790616544.044251,-0.02111,-0.00306,-0.9905,0.04899,0.01018,0.0075
1790616544.1465569,0.0329,0.02446,-0.97102,0.01441,0.054,-0.00652
1790616544.265194,0.02396,0.08448,-1.0056,0.01412,-0.00487,-0.04102
1790616544.365618,-0.03926,0.0963,-0.99331,0.03627,-0.06821,-0.04494
1790616544.4644082,-0.03253,-0.06912,-1.00902,0.03635,-0.01318,-0.04038
1790616544.5643919,0.00021,-0.11889,-1.00119,0.03898,-0.00465,0.03196
1790616544.684103,-0.02636,-0.11889,-1.00521,-0.00055,0.01617,0.01568
1790616544.784502,-0.08248,0.14879,-1.02055,0.01623,-0.02062,0.03114
1790616544.9059808,-0.0918,0.06854,-0.99837,0.00365,0.00137,0.00924
1790616545.024079,-0.06626,0.00536,-0.99515,0.01862,-0.00973,0.02148
1790616545.1245089,-0.02799,0.00222,-1.00205,0.00425,0.00216,0.00613
1790616545.244125,-0.01923,3e-05,-1.00199,0.00561,0.00103,0.00286
1790616545.34428,-0.00728,0.00146,-1.00388,0.00351,0.00222,0.00386
1790616545.44437,-0.00583,0.00203,-1.00181,0.00451,0.001,0.00283
1790616545.544339,-0.00501,0.00166,-1.00068,0.00373,0.00333,0.00536
1790616545.644503,-0.00733,0.0167,-1.0002,-0.0001,0.00493,-0.04369
1790616545.769185,-0.00955,-0.00484,-1.0022,0.0043,0.00075,0.01119
1790616545.8645928,-0.0098,-0.00076,-1.00303,0.00593,0.00322,0.00753
1790616545.964468,-0.00962,-0.00247,-1.00197,0.0025,0.00409,0.01229
1790616546.065279,-0.00921,-0.00223,-1.0006,0.00563,0.00272,0.01245
1790616546.1653628,-0.00955,-0.00155,-1.00053,0.00332,0.00167,0.01222
1790616546.2846332,-0.00915,-0.00165,-1.0022,0.00596,0.0052,0.01301
1790616546.384589,-0.01091,-0.00382,-0.99976,0.00234,0.00414,0.018
1790616546.4845362,-0.01094,-0.00868,-1.00255,0.00368,0.00521,0.01945
1790616546.584506,-0.01035,-0.00845,-1.00214,0.00474,0.00197,0.02179
1790616546.684617,-0.00865,-0.00631,-1.00327,0.00631,-0.00028,0.00812
1790616546.80623,-0.01333,0.00622,-1.00069,0.0032,0.00091,0.00342
1790616546.907753,-0.00774,0.00437,-1.00235,0.00179,0.00525,0.00681
1790616547.0243819,-0.00492,0.00169,-1.00171,0.00616,0.00475,0.00893
1790616547.124074,-0.00922,-0.00907,-1.00169,0.00658,0.00166,0.02813
1790616547.2255208,-0.00922,-0.00907,-1.00169,0.00658,0.00166,0.02813
1790616547.344197,-0.00596,0.00608,-1.00147,0.00323,0.00285,0.01148
1790616547.4440699,-0.00613,0.0045,-1.00228,0.00244,-0.00152,0.01366
1790616547.544076,-0.00707,0.00032,-1.00025,0.002,0.00164,0.01245
1790616547.64423,-0.00778,0.00258,-1.00224,0.00379,0.00066,0.01302
1790616547.766258,-0.00964,-0.00427,-0.99953,0.00334,0.00483,0.02318
1790616547.8658938,-0.00991,-0.01197,-0.99917,0.00281,0.00595,0.00073
1790616547.965634,-0.00322,0.01635,-1.00193,0.00518,0.00138,-0.00571
1790616548.084022,-0.00369,0.00803,-1.00221,0.00459,0.00546,-0.00037
1790616548.1851578,-0.00353,0.00908,-1.00055,0.00464,0.00266,0.00751
1790616548.304557,-0.00713,0.00659,-1.00328,0.00478,0.00591,0.01107
1790616548.4041312,-0.00679,0.0272,-1.00083,0.00141,-0.00016,-0.04402
1790616548.504074,-0.00232,0.0222,-1.00262,-0.00066,0.00666,-0.03326
1790616548.6055732,-0.00049,0.02249,-1.0012,0.00301,0.00637,-0.02681
1790616548.7240279,-0.00104,0.02095,-1.00186,0.00053,0.00081,-0.02328
1790616548.8249412,-0.0009,0.01915,-1.00229,0.00419,0.00588,-0.01388
1790616548.924175,0.00896,0.01618,-1.00061,0.00048,0.00415,0.00754
1790616549.024616,-0.01357,0.00402,-1.00197,0.00415,0.00181,-0.02695
1790616549.144106,-0.0007,0.01592,-1.0001,0.00344,0.0073,-0.00882
1790616549.245565,-0.00017,0.01443,-1.00078,0.00289,0.00761,-0.00936
1790616549.344177,-0.00399,0.01474,-1.00088,0.00424,0.00532,-0.00736
1790616549.4444458,-0.00624,0.01613,-1.00129,0.00359,0.00033,-0.00931
1790616549.584579,-0.00366,0.01262,-1.00263,0.00649,0.00629,-0.00247
1790616549.685087,-0.00088,0.01776,-1.00308,0.00363,0.00285,-0.0105
1790616549.784579,-0.00278,0.0137,-1.00233,0.00396,0.00238,-0.00598
1790616549.904192,-0.00429,0.0083,-0.99998,0.00402,0.00447,0.00218
1790616550.004402,-0.00429,0.01341,-1.00046,0.00298,0.00141,-0.00182
1790616550.1044,-0.00353,0.01316,-1.00171,0.00168,0.00449,0.00035
1790616550.2045052,-0.00534,0.01125,-1.00295,0.00292,0.00473,0.00347
1790616550.32418,-0.00266,0.01291,-0.99867,0.0026,0.00288,-0.00263
1790616550.424305,-0.00675,-0.00051,-1.00189,0.00615,0.00492,-0.01921
1790616550.5247731,-0.00723,5e-05,-1.00093,0.00341,0.00708,-0.00457
1790616550.624425,-0.00849,-0.00674,-1.00185,0.00344,-0.00146,0.00306
1790616550.744245,-0.01328,-0.01335,-1.00168,0.0059,0.00464,0.00883
1790616550.86512,-0.01602,-0.01262,-1.00231,0.00435,0.00325,0.01313
1790616550.964811,-0.01388,-0.01491,-1.00154,0.00523,0.00104,0.01635
1790616551.0680552,-0.00993,-0.00797,-1.00208,0.00296,0.00292,-0.012
1790616551.185004,-0.01413,-0.01026,-1.00346,0.00696,0.00348,0.01644
1790616551.304606,-0.01548,-0.01335,-1.00135,0.00552,-0.00173,0.02814
1790616551.404423,-0.01616,-0.01452,-1.00069,0.00531,0.00326,0.03078
1790616551.5072331,-0.01603,-0.01355,-1.0025,0.00539,0.00482,0.02957
1790616551.6044319,-0.02502,-0.02001,-1.00372,0.00499,-0.001,0.03688
1790616551.704871,-0.00197,0.00996,-1.00151,0.00466,0.00684,0.00063
1790616551.8251991,-0.00756,0.00721,-1.00203,0.00092,0.00431,0.00186
1790616551.926294,0.1468,0.40818,-1.00056,0.00033,0.00032,-1.23293
1790616552.027654,0.00825,0.03278,-0.99432,-0.00404,0.0169,-0.88461
1790616552.144106,0.03055,0.04919,-0.98737,0.02689,-0.00251,-1.00301
1790616552.2662652,0.00767,-0.02318,-1.01137,0.00284,0.00188,-0.97297
1790616552.3841689,0.0267,0.0306,-1.00679,0.0268,0.02404,-1.09369
1790616552.484195,0.00954,0.0204,-1.00109,-0.01901,0.03413,-1.01795
1790616552.584338,0.03323,0.0219,-0.98885,0.00401,0.04092,-1.00375
1790616552.684254,0.01052,-0.0015,-0.9948,0.00921,0.00263,-0.97552
1790616552.804068,-0.01919,-0.06453,-1.00566,0.02733,0.00279,-0.98903
1790616552.904211,0.00318,0.00621,-1.00717,0.01021,-0.00275,-1.06432
1790616553.004194,0.00668,-0.00034,-1.00505,0.04139,-0.00105,-0.89263
1790616553.104469,-0.01244,-0.02103,-1.01578,-0.00659,-0.0041,-0.75297
1790616553.204337,-0.00232,-0.01031,-1.01359,0.00254,0.01325,-0.7246
1790616553.327532,0.00593,-0.01741,-1.00995,0.00731,0.00666,-0.51058
1790616553.428389,-0.01067,-0.00867,-1.00339,-0.00342,0.00595,-0.38728
1790616553.52872,-0.00779,0.00899,-1.00136,0.00599,0.00207,-0.34003
1790616553.627531,-0.01682,-0.01427,-1.00226,0.00349,0.0062,-0.30136
1790616553.745119,0.00193,0.00955,-1.00264,0.00415,0.00423,-0.25783
1790616553.8454242,-0.00366,0.00242,-1.00297,0.00409,0.00643,-0.1757
1790616553.94458,0.01029,0.02489,-1.00198,0.00501,0.0003,-0.22377
1790616554.084733,0.00625,0.02163,-0.99988,0.00781,0.00776,-0.18922
1790616554.1846,-0.0095,-0.03386,-0.9999,0.00412,-0.0031,-0.08462
1790616554.284267,-0.00234,0.0273,-1.00055,0.00276,0.00579,-0.023
1790616554.384471,0.00573,0.02831,-1.00181,0.00142,0.00287,-0.03345
1790616554.503901,0.00627,0.02552,-1.00064,0.00113,0.00395,-0.03296
1790616554.6041238,5e-05,0.02006,-0.99959,0.00341,0.00358,-0.03319
1790616554.726221,-0.00565,0.012,-0.99962,0.004,0.00053,-0.01518
1790616554.844116,-0.0013,0.01119,-1.00125,0.00459,-0.00043,-0.01267
1790616554.9441679,0.00416,0.01444,-1.00135,0.00434,0.00217,-0.02727
1790616555.0452778,-0.00142,0.02853,-1.00083,0.00748,0.00334,-0.02533
1790616555.144532,0.00462,0.02422,-0.99948,0.00554,0.00286,-0.01088
1790616555.2445052,0.00713,0.02696,-1.0015,0.00102,0.00653,-0.01282
1790616555.368177,0.00483,0.02501,-1.00314,0.00227,0.005,-0.01197
1790616555.4649742,0.0048,0.02088,-1.00401,0.00296,0.00545,-0.00144
1790616555.5653389,0.08315,0.02994,-0.99882,0.00923,0.01545,-0.03652
1790616555.688679,0.23038,0.00747,-1.01384,-0.01416,-0.0175,-0.01836
1790616555.787101,0.13439,0.0355,-0.98088,0.01573,-0.02354,-0.06048
1790616555.9039922,-0.06298,0.03282,-1.03428,-0.00762,-0.05124,-0.03034
1790616556.003907,-0.13604,-0.02045,-0.99745,0.02537,-0.01043,0.00422
1790616556.104737,-0.00392,0.00589,-1.0037,-0.05708,0.01444,-0.01243
1790616556.2040489,0.09216,0.00112,-1.01306,-0.02057,-0.01102,-0.00532
1790616556.344574,-0.04267,0.03254,-1.01318,0.00831,-0.04594,-0.02943
1790616556.444146,-0.03938,0.13739,-0.98914,0.02313,-0.0113,-0.04227
1790616556.5444531,-0.00689,0.10616,-0.99499,0.02527,0.05816,0.06219
1790616556.644394,0.03627,0.01773,-0.99325,-0.00463,0.01715,-0.03126
1790616556.764724,-0.00178,-0.05588,-0.99368,0.03167,0.00742,0.02528
1790616556.886195,-0.03507,-0.09193,-1.00005,0.00792,-0.01775,0.02602
1790616556.985462,-0.03553,-0.04365,-0.96838,-0.01743,0.00021,0.00386
1790616557.0868638,-0.0163,0.01,-0.99624,0.00322,0.00931,-0.0267
1790616557.2042,-0.048,0.03576,-0.99013,-0.00813,-0.00834,0.03047
1790616557.303964,-0.07664,-0.01604,-1.00576,0.01101,-0.00597,0.02573
1790616557.404133,-0.06557,0.01455,-0.99652,-0.00446,0.00962,0.01111
1790616557.504113,-0.01997,0.0258,-0.99784,0.01446,0.01411,-0.00694
1790616557.604168,-0.02743,0.01506,-1.00736,0.00511,-0.01331,0.01294
1790616557.7040799,-0.01488,0.00885,-0.99948,-0.00451,-0.00123,0.00994
1790616557.824367,-0.01198,0.02712,-0.99919,0.01123,0.00085,0.00046
1790616557.925965,-0.00152,0.02165,-0.99737,-0.00448,0.01115,-0.00658
1790616558.025134,-0.00919,0.00644,-0.99351,0.00501,0.00021,0.00975
1790616558.1240919,-0.00988,0.01987,-1.00104,0.0007,0.00554,-0.01007
1790616558.2239628,-0.02802,-0.01631,-1.00272,0.01003,-0.00857,0.04407
1790616558.344157,-0.08049,0.01841,-0.99619,-0.00184,0.00148,-0.00281
1790616558.444082,-0.01589,0.02997,-0.99951,0.00624,0.00732,-0.02163
1790616558.58397,-0.02152,0.01162,-1.00291,0.00764,0.00388,0.00265
1790616558.686511,-0.01804,0.00961,-1.00071,0.0036,0.00282,0.0072
1790616558.804804,-0.01066,0.01451,-1.00085,0.00646,-0.00097,-0.00108
1790616558.904542,-0.00923,0.01311,-1.00176,0.00697,0.00377,0.00462
1790616559.003981,-0.00849,0.01107,-1.00134,0.00333,0.00217,0.00416
1790616559.103981,-0.01196,0.01185,-1.00335,0.00503,0.00392,0.00419
1790616559.203918,-0.01004,0.01232,-1.00166,0.00363,0.00361,0.00392
1790616559.304045,-0.0134,-0.00885,-1.00182,0.00671,0.00995,0.02991
1790616559.404319,-0.00863,0.01409,-1.0006,0.0049,0.00533,0.00542
1790616559.524203,-0.00659,0.01642,-1.00279,0.00297,0.00292,0.00286
1790616559.627651,-0.00741,0.02293,-1.00283,0.00306,0.00193,-0.0163
1790616559.724876,-0.00686,0.01757,-0.99917,0.00534,0.00476,-0.01406
1790616559.844394,-0.00881,0.01159,-0.99982,0.00226,0.00133,-0.00361
1790616559.94683,-0.01042,0.00633,-1.00094,0.00267,0.00482,0.00415
1790616560.047092,-0.00235,0.00857,-1.00132,0.00158,-0.00054,0.00191
1790616560.163925,-0.01984,0.00215,-1.00104,0.00189,0.00193,0.01467
1790616560.264454,-0.01507,-0.00165,-1.00051,0.00479,0.00668,0.02351
1790616560.3645818,-0.01473,-0.00343,-0.99926,0.00378,0.00622,0.02499
1790616560.464659,-0.01749,-0.00875,-1.0001,0.00583,0.00665,0.03053
1790616560.564167,-0.01834,-0.0206,-1.0005,0.00181,0.01086,0.05142
1790616560.686975,-0.01656,-0.02468,-1.00153,0.00618,0.0012,0.01436
1790616560.803954,-0.01673,-0.0066,-1.00158,0.00449,0.00507,0.02687
1790616560.903866,-0.01864,-0.00761,-0.99965,0.0055,0.00535,0.02738
1790616561.004284,-0.01536,-0.00841,-1.00087,0.00851,0.00414,0.02818
1790616561.104726,-0.01779,-0.00858,-1.0023,0.00412,0.00952,0.03056
1790616561.226012,-0.01924,-0.00911,-1.00077,0.0044,0.0021,0.03022
1790616561.325305,-0.00731,0.02105,-1.00274,0.00485,0.00329,0.01194
1790616561.425293,-0.00758,0.01423,-0.99925,0.00421,0.00397,0.01248
1790616561.546596,-0.01037,0.01441,-1.00007,0.00103,0.00199,0.01649
1790616561.645677,-0.00711,0.01768,-1.00066,0.0072,0.00162,0.01334
1790616561.7456121,-0.02393,0.01389,-1.00336,0.00507,0.00513,0.00937
1790616561.8639731,-0.00386,0.0275,-0.99966,0.00481,0.00444,-0.00918
1790616561.9641888,-0.00414,0.03059,-1.00279,0.00556,0.00063,-0.01161
1790616562.063967,-0.00548,0.02719,-1.00093,0.00379,0.00509,-0.00846
1790616562.164024,-0.00465,0.03114,-1.00142,0.0034,0.00249,-0.0132
1790616562.2844522,-0.00341,0.02885,-1.00058,0.00341,0.00296,-0.00963
1790616562.384676,0.00097,0.0296,-1.00073,0.00491,-0.0012,-0.02131
1790616562.485387,-0.00765,0.02285,-1.00122,0.00187,0.00431,-0.00423
1790616562.60462,-0.00149,0.02626,-1.00277,0.00643,0.00245,-0.00609
1790616562.704538,-0.00248,0.02711,-1.00322,0.0041,0.00382,-0.00982
1790616562.8240619,-0.00503,0.03046,-1.00189,0.00576,0.00062,-0.01521
1790616562.925982,-0.00549,0.02732,-1.00168,0.00459,0.0019,-0.01144
1790616563.044779,-0.00093,0.03123,-1.00226,0.00328,0.00211,-0.02219
1790616563.147035,0.00297,0.03803,-1.00069,0.00142,0.00335,-0.03221
1790616563.2474408,0.00104,0.036,-1.00168,0.00217,0.0027,-0.03545
1790616563.346889,-0.00106,0.03617,-1.00209,0.00317,0.00049,-0.03403
1790616563.4480069,-0.00284,0.03551,-1.00139,0.00123,-0.00161,-0.03419
1790616563.54687,-0.00109,0.03604,-1.0014,0.00366,0.00146,-0.03273
1790616563.66399,-0.00158,0.03769,-1.0033,0.00294,0.00388,-0.03765
1790616563.7649071,-0.00203,0.03637,-1.00474,0.00261,-0.00066,-0.04024
1790616563.8844779,-0.00626,0.03376,-1.00313,0.00565,0.00705,-0.02749
1790616563.984715,-0.00368,0.05279,-0.99887,0.00286,0.00206,-0.05063
1790616564.08533,-0.00351,0.02978,-1.00218,0.00014,0.00102,-0.03634
1790616564.184056,-0.00651,0.02819,-1.00153,0.0014,0.0021,-0.03636
1790616564.2864509,-0.00392,0.02729,-1.00269,0.00346,-0.00381,-0.0359
1790616564.38466,-0.00541,0.02623,-1.00204,0.00516,0.00046,-0.03291
1790616564.485333,-0.00251,0.02798,-1.00129,0.00119,-0.00219,-0.04261
1790616564.607451,-0.00785,0.01309,-0.99995,0.00282,0.00126,-0.01898
1790616564.707126,-0.00964,0.01291,-1.00101,0.00515,-0.00169,-0.02228
1790616564.8070788,-0.00847,0.01998,-1.00225,0.00356,-0.00123,-0.0267
1790616564.924022,-0.00585,0.02113,-0.99996,0.00492,0.00116,-0.02901
1790616565.023927,-0.0051,0.03309,-1.00148,0.00021,0.00027,-0.04675
1790616565.124395,-0.00486,0.03158,-1.00154,0.00571,0.00136,-0.03027
1790616565.2484531,-0.00448,0.03345,-1.00017,0.00337,-0.00123,-0.04275
1790616565.345365,-0.00148,0.03277,-1.00328,0.00467,0.00514,-0.04377
1790616565.446508,-0.00471,0.03185,-1.00137,-0.00075,0.00243,-0.03873
1790616565.5445518,-0.00257,0.03109,-1.00216,0.00153,-0.00145,-0.0419
1790616565.664002,-0.00271,0.02777,-1.00162,0.00051,0.00422,-0.01957
1790616565.7652328,-0.00818,0.01197,-1.002,0.001,0.0031,-0.02319
1790616565.864827,-0.01222,0.00901,-1.00196,0.00639,0.00391,-0.00839
1790616565.964052,-0.01344,0.00614,-1.0025,0.00537,0.00367,-0.00485
1790616566.0650592,-0.01319,0.00433,-1.00158,0.00452,0.0023,-0.00567
1790616566.164224,-0.00905,0.0152,-1.00219,0.00425,0.00127,-0.02007
1790616566.283812,0.08055,0.01008,-0.99901,0.00644,0.01713,-0.01199
1790616566.383873,0.23642,0.03368,-1.0174,0.00287,-0.01331,-0.11302
1790616566.484382,0.08345,-0.02386,-0.95992,-0.03947,0.03178,0.04482
1790616566.606792,-0.09976,-0.00047,-1.03858,-0.03216,-0.05966,0.07815
1790616566.707648,-0.11568,0.02705,-0.98501,-0.00737,0.00504,-0.03063
1790616566.823835,-0.00327,0.02098,-0.99041,0.00849,0.03077,-0.00477
1790616566.924073,0.02246,-0.01746,-1.01325,-0.00451,0.01769,0.03176
1790616567.024035,-0.05065,0.00667,-0.98527,-0.0015,-0.02527,-0.00807
1790616567.123998,-0.06443,-0.01051,-0.97605,-0.02734,0.0239,0.0316
1790616567.22475,0.01456,-0.03512,-0.97371,-0.0082,0.02639,-0.00287
1790616567.343976,0.02928,-0.0196,-0.97965,0.01613,0.02703,0.03323
1790616567.455651,0.01653,0.03476,-0.99748,0.00648,0.03657,-0.00367
1790616567.544395,-0.01888,0.02769,-1.01046,0.01416,-0.00317,-0.00943
1790616567.644227,-0.05259,-0.00475,-1.0269,0.05213,-0.03318,-0.00126
1790616567.7441568,-0.01173,0.02376,-1.00005,0.04923,-0.00734,-0.02115
1790616567.8642602,-0.02421,0.02916,-0.99273,0.00392,-0.0135,-0.0266
1790616567.964533,-0.10068,0.01165,-1.0093,0.00977,-0.00855,0.0029
1790616568.064775,-0.08604,0.02922,-1.00056,0.0001,0.00635,-0.02553
1790616568.1838899,-0.02994,0.0031,-0.99527,0.01806,0.01131,0.0077
1790616568.284516,0.03123,0.01099,-1.00361,0.00215,0.00351,-0.00384
1790616568.384088,0.00644,0.00588,-1.00383,-0.00657,-0.00023,-0.01082
1790616568.505748,-0.03839,0.01069,-0.99988,-0.00161,0.00111,0.01971
1790616568.605938,-0.02448,0.0126,-1.00136,0.00143,0.00082,-0.0022
1790616568.70518,-0.00566,0.01327,-1.00271,0.00238,0.00417,0.00059
1790616568.8042529,0.00836,0.01743,-1.00762,-0.00605,0.0005,-0.00441
1790616568.905455,0.0253,0.01204,-1.0021,0.00139,0.00167,0.00114
1790616569.024868,-0.0163,0.00458,-0.99678,-0.0016,0.017,0.01769
1790616569.1256409,-0.04621,0.00726,-1.00099,0.00334,0.00564,0.0143
1790616569.2241411,-0.02252,0.01232,-1.00083,0.00014,0.00906,0.002
1790616569.34489,0.00538,0.01158,-1.00089,0.00516,0.0055,0.01073
1790616569.444161,0.00637,0.01148,-1.00045,0.00399,0.00401,0.0048
1790616569.544481,0.00087,0.01255,-1.00257,0.00323,0.00181,0.00363
1790616569.667904,-0.00232,0.01225,-1.0024,0.00308,0.00248,0.00343
1790616569.784033,-0.00652,0.01283,-1.00253,0.0034,0.00421,0.00408
1790616569.884066,-0.00826,0.01076,-0.99927,0.00715,0.00192,0.0053
1790616569.984318,-0.00328,0.02227,-1.00149,0.00272,-0.00097,-0.01507
1790616570.084555,-0.00527,0.00778,-1.00195,0.00239,0.0016,0.00617
1790616570.203915,-0.00715,0.00983,-1.00213,-0.00011,0.00259,0.00454
1790616570.305353,-0.00747,0.00465,-1.00219,0.00523,0.00317,0.01309
1790616570.4243891,-0.00827,0.00591,-0.99969,0.00408,0.0043,0.01265
1790616570.523814,-0.00907,-0.00014,-1.00009,6e-05,0.00493,0.01623
1790616570.624287,-0.00999,-0.0009,-1.00108,0.00537,0.00257,0.02619
1790616570.7238789,-0.01117,-0.00227,-1.00061,0.00555,0.0032,0.02562
1790616570.8442712,-0.00973,-0.0005,-1.0006,0.00197,0.00686,0.04588
1790616570.943933,-0.0121,0.00557,-1.00087,0.00473,0.00074,0.02043
1790616571.044728,-0.0067,0.00572,-1.00139,0.00549,0.00397,0.02092
1790616571.1446881,-0.0057,0.00898,-1.00324,0.00689,0.00535,0.01961
1790616571.2447412,-0.00529,0.01118,-1.00136,0.00656,0.00055,0.01321
1790616571.344353,-0.0007,0.02358,-1.0015,0.01051,0.00354,-0.00107
1790616571.46644,-0.01037,-0.00791,-0.99944,0.00847,0.0049,0.02169
1790616571.5640872,-0.01316,-0.00478,-1.00133,0.00281,0.00124,0.01656
1790616571.665437,-0.01069,-0.00014,-1.00013,0.00537,0.00551,0.0165
1790616571.784265,-0.00964,-0.00151,-1.00066,0.00496,0.00461,0.01394
1790616571.884404,-0.01009,0.00023,-0.99932,0.00483,0.00209,0.01159
1790616571.984808,-0.01474,-0.0097,-1.00094,0.00757,0.00258,0.0161
1790616572.085972,-0.01106,-0.01629,-1.00097,0.00515,0.00205,0.03223
1790616572.184599,-0.00951,-0.00241,-0.99875,0.00377,0.00554,0.02196
1790616572.303705,-0.01398,-0.00907,-1.00109,0.00645,0.00666,0.01934
1790616572.405806,-0.00642,0.00524,-1.00123,0.00203,0.00284,-0.00213
1790616572.505501,0.01436,0.02415,-1.00176,0.00244,-0.0011,-0.01301
1790616572.604758,-0.0023,0.01879,-1.00131,0.00562,0.00725,-0.02709
1790616572.704978,-0.00714,0.00046,-1.00095,0.00665,-0.00017,0.00643
1790616572.804781,-0.00433,0.00872,-1.00212,0.00366,0.00162,-0.01426
1790616572.924653,-0.00132,0.02573,-1.00106,0.00244,-0.00104,-0.03082
1790616573.027724,0.01724,0.04203,-1.00196,-0.00347,0.00088,-0.02857
1790616573.1243489,-0.00388,0.03855,-1.00047,0.00532,0.0023,-0.02791
1790616573.2248478,0.0055,0.03139,-1.00174,0.00408,0.00152,-0.01851
1790616573.344312,0.0015,0.02883,-1.00102,0.00723,0.00731,-0.00564
1790616573.44403,-0.00285,0.01868,-1.00318,0.00534,0.00294,0.01356
1790616573.5442,-0.0078,0.00454,-1.00004,0.00708,0.00424,0.03124
1790616573.6640499,-0.01137,-0.00734,-1.00048,0.00514,0.00441,0.04221
1790616573.7725492,-0.01324,-0.01009,-1.00044,0.00838,-0.00014,0.03549
1790616573.864327,-0.01492,-0.01138,-1.00026,0.00301,0.00202,0.0299
1790616573.964389,-0.00952,0.00063,-1.00173,0.00753,0.00745,0.0089
1790616574.066188,-0.00895,-0.00066,-1.00001,0.00669,0.00254,0.00206
1790616574.2042298,-0.0094,-0.00217,-1.00053,0.00412,0.00264,0.00228
1790616574.3045938,-0.00812,0.00165,-1.00157,0.00025,0.00043,-0.00456
1790616574.405469,-0.00575,0.01113,-1.00076,0.00224,0.00462,-0.0184
1790616574.52579,-0.00065,0.021,-1.00149,0.00097,0.00193,-0.03144
1790616574.626529,-0.0059,0.00857,-0.99785,0.00702,0.00781,-0.00061
1790616574.72653,-0.00633,0.00292,-1.00026,0.00157,0.00586,0.00546
1790616574.844188,-0.00512,0.00414,-1.00224,0.00135,0.00152,-0.00865
1790616574.944021,-0.00683,0.00315,-1.00182,0.0037,0.00252,-0.00955
1790616575.043957,-0.00978,0.00214,-0.99974,0.00512,-0.00012,-0.00314
1790616575.144572,-0.00317,0.00626,-1.00078,0.00077,0.01324,-0.02913
1790616575.244232,0.00115,0.03055,-1.00176,0.00332,0.00553,-0.03846
1790616575.364306,-0.00174,0.02858,-1.00158,0.00327,-0.00012,-0.02209
1790616575.46464,-0.00071,0.01967,-1.00116,0.00514,0.00255,-0.03159
1790616575.5646012,0.0009,0.02197,-1.00166,0.00234,0.003,-0.03058
1790616575.664246,-0.01073,0.01867,-1.00173,0.00713,0.00173,-0.01218
1790616575.784574,-0.01203,-0.00337,-1.00162,0.00737,0.00243,0.03417
1790616575.883706,-0.0114,-0.00414,-0.99986,0.00628,0.00363,0.03238
1790616575.984498,-0.01188,-0.0068,-1.00023,0.00572,0.00461,0.03618
1790616576.084852,-0.01431,-0.01035,-1.00087,0.00431,0.0049,0.03603
1790616576.184282,-0.01191,-0.00553,-0.99912,0.00651,0.00542,0.03237
1790616576.3043818,-0.01254,-0.00442,-0.99902,0.00356,0.00616,0.03358
1790616576.411679,-0.01433,-0.00824,-0.99887,0.00617,0.00577,0.03285
1790616576.504322,-0.00739,0.00368,-1.00189,0.00653,0.00455,0.02245
1790616576.60386,-0.01076,0.00467,-0.99981,0.0045,-0.00216,0.02413
1790616576.725058,-0.01032,-0.00242,-1.00067,0.0043,0.00736,0.02557
1790616576.825265,-0.00811,-0.00026,-0.9987,0.00553,0.00501,0.02607
1790616576.925392,0.07252,0.01237,-1.00297,0.00095,0.01765,-0.02016
1790616577.043745,0.23558,0.01203,-1.00287,0.03214,0.0151,-0.10594
1790616577.144951,0.13313,0.02264,-1.00884,-0.03285,0.01652,0.01057
1790616577.2445922,-0.07665,0.01187,-1.01287,0.02432,0.01114,0.04698
1790616577.3438451,-0.12257,0.02315,-0.99326,-0.00413,0.00858,0.04332
1790616577.4642339,-0.01526,-0.00713,-0.99557,0.01042,0.01451,0.03596
1790616577.565071,0.05452,-0.00695,-0.99757,0.01377,-0.00095,0.08668
1790616577.664601,0.02944,0.01777,-1.00713,-0.02053,0.05369,0.00785
1790616577.7876768,-0.04014,0.03771,-1.00944,0.03279,0.04206,-0.01862
1790616577.884384,-0.03332,0.05878,-0.99124,0.04102,0.01733,-0.01592
1790616577.987906,0.01397,0.03712,-0.98966,0.00887,0.02837,0.03015
1790616578.087538,0.01754,0.01381,-1.00866,0.01082,0.00631,0.02944
1790616578.190093,0.00966,0.07755,-1.01985,0.03986,0.0054,-0.06198
1790616578.304239,-0.038,-0.01009,-0.99536,0.01139,0.02299,0.01602
