unix_timestamp,acc_x,acc_y,acc_z,gyro_x,gyro_y,gyro_z
1790742774.510188,0.0,0.0,0.0,0.0,0.0,0.0
1790742774.5237691,0.0,0.0,0.0,0.0,0.0,0.0
1790742774.545959,-0.01569,0.00954,-0.99848,0.0014,0.0027,-0.00018
1790742774.5637639,-0.0154,0.00874,-0.99895,0.00307,0.0038,0.00308
1790742774.58609,-0.01556,0.00896,-0.99859,0.00159,0.00244,0.00228
1790742774.605685,-0.01497,0.01001,-0.99955,0.00141,0.00317,0.00066
1790742774.625071,-0.01342,0.00982,-0.99921,0.00018,0.00499,0.00077
1790742774.642303,-0.01368,0.00817,-1.00091,0.0018,0.00225,0.00342
1790742774.664108,-0.01578,0.00849,-1.00145,0.00311,-0.00063,0.00261
1790742774.68923,-0.01437,0.00995,-1.00082,0.00096,0.0044,-0.00394
1790742774.70633,-0.01589,0.00861,-0.99859,-0.0019,0.00462,0.00073
1790742774.725045,-0.01549,0.01013,-0.99805,0.00439,0.00347,0.00026
1790742774.7422981,-0.01586,0.01047,-0.99753,0.00305,0.00148,0.0004
1790742774.7634351,-0.0151,0.00881,-1.00053,-0.00133,0.00159,0.00474
1790742774.7851799,-0.01439,0.01065,-1.00007,0.00078,0.00073,0.00036
1790742774.805548,-0.01543,0.01043,-0.99917,0.00155,0.00345,-0.00065
1790742774.824963,-0.01705,0.00531,-1.00026,0.00103,-9e-05,0.00279
1790742774.8433542,-0.01383,0.00988,-0.99867,0.00412,0.00175,0.00172
1790742774.86624,-0.01446,0.01067,-0.99849,0.00246,0.00294,0.00118
1790742774.886531,-0.01464,0.00722,-0.99889,0.00321,0.00531,0.00466
1790742774.906832,-0.01458,0.0103,-1.00132,0.0021,0.00242,0.0012
1790742774.925452,-0.015,0.00985,-1.0003,0.00256,0.00287,0.00245
1790742774.95734,-0.01704,0.00683,-0.99958,0.00164,-0.00021,0.00297
1790742774.968218,-0.01551,0.01012,-0.99944,0.00114,0.00164,-0.00093
1790742775.0047739,-0.016,0.00915,-0.99872,0.00154,0.00183,0.00207
1790742775.0248551,-0.01608,0.01005,-0.9989,0.0029,0.00061,0.00237
1790742775.0467122,-0.01585,0.00954,-0.99972,0.00278,0.00271,0.00321
1790742775.0657668,-0.01594,0.00958,-0.99906,0.00225,0.00184,0.00116
1790742775.085865,-0.01593,0.00915,-0.99805,0.00099,0.00198,-0.00014
1790742775.105227,-0.01585,0.00873,-1.00026,0.00071,0.00369,0.00133
1790742775.125526,-0.01518,0.00961,-1.00038,0.00016,0.00086,0.00094
1790742775.1470652,-0.01456,0.00842,-1.00035,0.00432,0.0035,-0.00101
1790742775.166635,-0.01355,0.00973,-0.99964,0.00247,0.00418,0.00129
1790742775.186877,-0.01303,0.01017,-0.99958,0.00054,0.00384,0.00187
1790742775.2037299,-0.01339,0.00718,-0.99822,-0.00201,0.00354,0.00296
1790742775.224776,-0.0156,0.00798,-0.99927,-0.00058,0.00176,0.00269
1790742775.245381,-0.01656,0.0087,-1.00129,0.00329,-0.00167,0.00037
1790742775.2866418,-0.0172,0.00921,-1.0006,0.00337,0.00401,0.00107
1790742775.306794,-0.01795,0.00851,-0.99964,0.0033,0.00189,0.00273
1790742775.3223329,-0.01885,0.00743,-0.9998,0.00318,0.00556,0.00217
1790742775.342892,-0.01681,0.01214,-1.00028,0.00018,-1e-05,-0.00219
1790742775.367807,-0.01557,0.00888,-1.00033,-0.00175,0.00113,0.00397
1790742775.3876219,-0.01494,0.00693,-1.00036,0.00324,0.00142,0.00227
1790742775.407543,-0.01259,0.01099,-0.99999,0.00028,0.00559,-0.00014
1790742775.426073,-0.0141,0.0083,-1.00064,0.00081,0.00087,0.00212
1790742775.443033,-0.01503,0.00615,-1.00074,0.00197,0.00279,0.00259
1790742775.465239,-0.01466,0.01017,-1.0001,0.00385,0.00331,-0.00131
1790742775.4854898,-0.01574,0.00848,-0.99899,0.00138,0.00151,0.00182
1790742775.506261,-0.015,0.0103,-0.99884,0.00278,0.00347,0.00211
1790742775.525047,-0.01514,0.01038,-0.99944,-3e-05,0.00244,0.00014
1790742775.54512,-0.01491,0.00855,-0.99859,0.00302,0.00286,0.00034
1790742775.566821,-0.01327,0.00906,-0.99915,-0.00177,0.0039,-0.00292
1790742775.606102,-0.0136,0.00848,-1.00014,0.00077,0.00159,0.00207
1790742775.625,-0.01532,0.00895,-1.00079,0.00057,0.00495,0.0006
1790742775.6430101,-0.01586,0.00922,-1.0005,-0.00041,0.00216,0.00032
1790742775.665038,-0.01679,0.01006,-0.99975,0.00567,-0.00057,-0.00356
1790742775.685791,-0.01558,0.01101,-1.00064,0.00165,0.00435,0.00986
1790742775.7041368,-0.01772,0.00382,-0.99934,0.00098,0.00185,0.00065
1790742775.726361,-0.01594,0.0106,-0.9989,0.00045,0.00285,0.00419
1790742775.742078,-0.01206,0.01334,-0.99958,0.00216,0.00262,-0.00152
1790742775.772728,-0.01357,0.01449,-0.99972,-0.00151,0.0021,-0.00318
1790742775.8038862,-0.01388,0.00907,-0.99883,0.00383,0.00064,0.00266
1790742775.8261702,-0.01496,0.00627,-0.99934,0.00053,0.00109,0.00277
1790742775.8419561,-0.01207,0.0116,-0.99999,0.00147,0.00193,-0.00188
1790742775.866005,-0.01552,0.01066,-0.99952,-0.00247,0.00171,-0.0009
1790742775.880887,-0.01579,0.0067,-0.99835,-0.00099,-0.0002,0.00403
1790742775.905154,-0.01429,0.014,-0.99631,0.00158,0.00169,-0.00111
1790742775.927475,-0.01643,0.00981,-0.99904,0.00114,0.0024,-1e-05
1790742775.938025,-0.01626,0.00721,-0.99878,0.00016,0.00294,0.00507
1790742775.9694579,-0.0148,0.01107,-0.99961,0.00279,0.00415,-0.00147
1790742775.976223,-0.01685,0.00975,-0.99981,0.0033,0.00226,0.00334
1790742776.0046232,-0.01464,0.00982,-0.99987,0.00063,7e-05,-0.00101
1790742776.0256572,-0.01109,0.01016,-1.00093,0.00445,0.00191,0.00321
1790742776.045203,-0.02387,0.00272,-1.00165,0.00489,0.00099,0.00207
1790742776.0841432,-0.01014,0.01626,-0.99834,0.00167,0.00756,0.00204
1790742776.1054652,-0.00874,0.00545,-0.99921,0.00225,0.00178,0.00321
1790742776.12529,-0.01694,0.00731,-1.00195,-0.00153,-0.00018,0.00077
1790742776.138612,-0.01254,0.0141,-0.99897,0.0036,-0.00204,0.00238
1790742776.1654432,-0.01426,0.00797,-1.0002,-0.00073,0.00453,0.00032
1790742776.1840498,-0.01805,0.00239,-0.99944,0.00254,0.00153,0.00451
1790742776.2054322,-0.01591,0.01685,-0.99882,0.00492,0.00206,-0.002
1790742776.2257888,-0.01819,0.00645,-0.99952,0.00223,0.00289,0.00308
1790742776.241472,-0.0172,0.00449,-1.00025,0.00059,0.00498,0.00359
1790742776.265307,-0.01511,0.00936,-0.99902,0.00226,0.00238,0.00324
1790742776.286359,-0.01416,0.00551,-0.99948,0.00131,0.00261,0.00113
1790742776.303979,-0.01274,0.01202,-0.99957,0.00332,0.00133,0.0004
1790742776.341165,-0.01489,0.00927,-0.99992,-0.0008,0.00298,0.00118
1790742776.365511,-0.01501,0.00672,-0.99912,0.00078,0.00187,0.00441
1790742776.386411,-0.01385,0.01319,-0.99871,0.00439,0.00292,0.00122
1790742776.4067168,-0.01687,0.00915,-0.99977,0.00103,-0.00103,0.00295
1790742776.425888,-0.01712,0.00738,-1.0005,-0.00015,0.00082,0.00247
1790742776.445599,-0.01724,0.01022,-0.99903,0.00061,0.00073,0.00185
1790742776.4658198,-0.01771,0.01057,-1.00081,0.00157,0.00053,0.0001
1790742776.479181,-0.0151,0.00854,-1.00108,-0.00029,0.00489,-0.00045
1790742776.5047941,-0.01494,0.01055,-0.99966,0.00291,0.003,0.00077
1790742776.5277262,-0.01495,0.00853,-0.99871,-0.00144,-0.00068,0.00057
1790742776.5661829,-0.01581,0.00799,-0.99963,0.00283,0.0014,0.00197
1790742776.586369,-0.01577,0.01109,-1.00097,0.00247,0.00281,0.00161
1790742776.605765,-0.01528,0.00773,-1.0004,0.00234,0.00283,0.00305
1790742776.625377,-0.01534,0.00819,-0.99892,0.00363,0.0024,0.00179
1790742776.638696,-0.01445,0.01274,-1.00029,0.00193,0.00253,-0.00196
1790742776.665175,-0.01501,0.00777,-1.00153,0.00123,0.00303,0.0031
1790742776.681869,-0.01484,0.00716,-1.00024,0.00282,0.00429,0.00376
1790742776.705184,-0.0141,0.01093,-1.0001,0.00062,0.00148,0.00054
1790742776.72563,-0.01607,0.00829,-1.00012,-0.00072,0.00245,0.00389
1790742776.736862,-0.01609,0.00905,-0.99835,-0.00046,0.00335,0.00117
1790742776.7641048,-0.01622,0.00857,-1.00031,0.00083,-6e-05,-0.00067
1790742776.78679,-0.01545,0.00812,-1.0014,0.00447,0.00098,0.00135
1790742776.825834,-0.01947,0.00967,-1.00075,0.00178,0.0086,0.00096
1790742776.836511,-0.01056,0.0087,-0.99829,0.00128,-0.00986,0.00049
1790742776.8589609,-0.0017,0.00597,-0.99873,-0.00214,-0.01066,0.00297
1790742776.887564,-0.023,0.01539,-1.00195,0.00468,0.00726,0.00259
1790742776.9074419,-0.01904,0.00827,-1.00282,0.00175,0.01123,0.00093
1790742776.925859,-0.00347,0.00755,-0.99985,0.00353,0.02154,-0.00012
1790742776.941453,-0.04072,0.00363,-1.00509,0.0024,-0.01674,0.00614
1790742776.9644,-0.0358,0.01391,-0.99859,0.00581,0.00625,0.00027
1790742776.988797,0.00512,0.02296,-0.99726,0.01029,-0.0029,-0.0016
1790742777.00671,0.00824,-0.00086,-0.99972,0.00087,-0.00068,0.00873
1790742777.02646,-0.03366,-0.00823,-1.00353,0.00393,-0.00256,0.00034
1790742777.050175,-0.01942,0.0289,-0.99839,0.00151,0.00418,-0.00154
1790742777.065731,-0.01001,0.00819,-1.0017,-0.01174,0.01367,-0.00195
1790742777.088109,-0.01306,-0.0095,-1.00134,-0.0051,0.00522,0.00684
1790742777.124408,-0.01787,0.02467,-1.0002,0.00197,0.0017,-0.00231
1790742777.1455948,-0.01745,0.01397,-1.00057,0.00755,-2e-05,0.00685
1790742777.167228,-0.01542,-0.00272,-1.00122,-0.00169,0.00305,-0.00532
1790742777.189857,-0.01597,0.00588,-0.99895,0.00308,0.00246,0.01085
1790742777.226848,-0.02093,0.00224,-1.00345,0.0023,-0.00055,0.00085
1790742777.242644,-0.01573,0.00094,-1.00093,-0.00253,0.00389,0.00527
1790742777.2907252,-0.04202,0.00153,-1.00431,-0.00571,-0.03833,0.01086
1790742777.30542,-0.02647,-0.00136,-1.00221,0.00179,0.0154,0.00158
1790742777.325205,-0.0008,0.03481,-0.99828,0.00762,0.01325,-0.00261
1790742777.340159,-0.01471,0.00035,-1.00171,-0.0049,-0.00746,0.01007
1790742777.365605,-0.00102,-0.00878,-0.99993,-0.00242,0.01487,-0.00703
1790742777.3860412,-5e-05,0.02416,-0.99761,0.0013,-0.00568,0.00509
1790742777.406065,-0.04559,-0.00653,-1.00474,-0.01085,-0.01637,0.00302
1790742777.426545,-0.01718,0.00025,-1.00017,0.0053,-0.00358,0.00357
1790742777.463658,0.00735,0.03758,-0.99697,0.00892,0.00451,-0.01278
1790742777.485087,-0.03574,-0.00754,-1.00382,0.00443,-0.00176,0.01021
1790742777.505436,-0.02439,0.00165,-1.00192,0.00465,0.00913,-0.00228
1790742777.5248482,-0.00319,0.02025,-0.99832,-0.00143,0.01256,-0.00673
1790742777.537507,-0.01671,0.00782,-1.00177,0.0003,0.00031,0.01005
1790742777.567178,-0.02237,0.00138,-1.00207,-0.00245,-0.0027,-0.00217
1790742777.588284,-0.01652,0.01067,-0.99871,-5e-05,-0.00405,0.0022
1790742777.606186,-0.01372,0.01342,-0.99988,0.00448,0.00165,0.00367
1790742777.629181,-0.01884,0.00603,-1.00102,-0.00034,0.00192,-0.00049
1790742777.6406798,-0.01456,0.00727,-1.00064,0.00233,0.00152,0.00566
1790742777.6669078,-0.01144,0.01286,-0.9991,0.00309,0.00404,-0.00191
1790742777.685674,-0.01705,0.00745,-1.00136,0.00103,-0.00219,0.00317
1790742777.7059689,-0.01387,0.00931,-0.99956,0.00367,0.00101,0.00195
1790742777.726824,-0.01503,0.01142,-1.00067,0.00359,0.003,0.00254
1790742777.740751,-0.01372,0.00607,-1.0004,8e-05,0.00232,0.0031
1790742777.785208,-0.0156,0.00809,-1.00033,0.0,0.0004,0.00267
1790742777.805106,-0.01537,0.01071,-0.99937,0.0023,0.00236,0.00117
1790742777.826207,-0.01494,0.00772,-1.00154,-0.00015,0.00359,-0.0008
1790742777.84145,-0.01775,0.00609,-1.00222,0.00067,0.00119,0.00697
1790742777.865176,-0.01626,0.01107,-0.99901,0.00237,0.00454,-0.00102
1790742777.885057,-0.01661,0.00908,-1.0001,-0.00014,0.00379,-0.00079
1790742777.904254,-0.01657,0.01091,-1.00076,0.00121,-0.00063,-0.00149
1790742777.926938,-0.0155,0.00878,-1.00015,0.00259,0.0032,0.00344
1790742777.943862,-0.01502,0.00771,-0.99932,0.00235,0.0032,3e-05
1790742777.965492,-0.0142,0.01012,-0.9991,-0.00023,-0.00017,0.00294
1790742777.984917,-0.01536,0.00875,-0.99998,-0.00019,0.00342,0.00327
1790742778.005733,-0.01538,0.00752,-1.00042,0.00158,0.00495,0.00263
1790742778.0439968,-0.0158,0.0107,-1.00193,0.00194,0.00211,-0.00022
1790742778.0653949,-0.01733,0.00998,-1.00101,0.0016,0.0021,-0.00077
1790742778.0842612,-0.01691,0.00785,-0.99902,0.00244,0.00261,0.00165
1790742778.103561,-0.01568,0.00966,-1.00043,0.00353,0.00339,-0.00178
1790742778.1278028,-0.01613,0.01011,-1.00012,0.00088,0.0006,0.00146
1790742778.141114,-0.01522,0.0067,-0.99986,0.00077,0.00367,0.00357
1790742778.164997,-0.01528,0.0102,-0.99945,0.00017,0.00103,0.0035
1790742778.185397,-0.01415,0.00812,-0.99911,0.00444,0.00148,-0.0003
1790742778.204958,-0.01401,0.00848,-1.00086,0.00093,0.00379,0.00162
1790742778.227266,-0.01408,0.00937,-1.00062,0.00209,0.00097,0.00182
1790742778.250323,-0.01408,0.00937,-1.00062,0.00209,0.00097,0.00182
1790742778.285561,-0.0136,0.00776,-0.9995,0.00192,0.00204,-0.00174
1790742778.305514,-0.0151,0.00836,-0.99991,0.00397,0.003,0.00222
1790742778.328896,-0.01616,0.00948,-1.00009,-0.00017,0.0034,-0.00078
1790742778.3406239,-0.01753,0.00985,-0.99856,0.001,0.00325,0.00215
1790742778.3640552,-0.01722,0.00909,-0.99926,0.00131,0.00316,-0.00145
1790742778.383639,-0.01665,0.00706,-0.99797,0.00047,0.00217,0.00278
1790742778.403517,-0.01569,0.00904,-1.00102,-0.00081,0.00378,-0.00122
1790742778.426282,-0.01546,0.00869,-1.00096,0.00219,0.00288,0.00044
1790742778.452162,-0.01534,0.00899,-0.99821,-0.00187,0.00052,0.00103
1790742778.465173,-0.01391,0.00902,-1.00167,0.0015,0.00394,0.00254
1790742778.486481,-0.01485,0.00885,-1.00294,0.00029,0.00303,0.00302
1790742778.505996,-0.0142,0.00895,-1.00024,0.001,0.00283,0.00047
1790742778.524578,-0.01501,0.00808,-0.99991,-0.00093,0.00225,-0.00038
1790742778.565936,-0.01555,0.00838,-1.0002,-0.00046,0.00182,0.00098
1790742778.586421,-0.01532,0.00833,-1.00035,0.00062,0.00592,-0.00137
1790742778.605881,-0.01537,0.01009,-0.99917,0.0023,0.00181,-0.00032
1790742778.6278331,-0.01595,0.00981,-1.00016,0.00087,0.00284,0.00207
1790742778.6462238,-0.01681,0.0085,-1.00016,0.00298,9e-05,-0.00048
1790742778.669601,-0.01544,0.00857,-1.00111,0.00116,-0.00082,0.00414
1790742778.685079,-0.01487,0.00955,-1.00089,0.00027,0.00397,-7e-05
1790742778.70489,-0.01487,0.00955,-1.00089,0.00027,0.00397,-7e-05
1790742778.7208781,-0.01427,0.00906,-1.00044,0.00375,0.0041,0.00053
1790742778.76712,-0.01508,0.00917,-1.0003,0.00119,0.00163,0.00308
1790742778.786856,-0.01432,0.00948,-1.00048,0.00094,0.0011,0.0005
1790742778.803164,-0.01637,0.00834,-1.00142,0.00125,-0.00019,0.00206
1790742778.846859,-0.01613,0.0092,-1.00097,0.00211,0.00056,0.0014
1790742778.860982,-0.01565,0.00924,-0.99932,0.00336,0.00048,0.002
1790742778.8852632,-0.01729,0.00802,-0.99937,0.00152,0.00217,0.00086
1790742778.900686,-0.01593,0.00957,-1.00138,0.00091,0.00365,-0.00114
1790742778.926236,-0.01517,0.00852,-1.00113,0.00104,0.00662,0.00324
1790742778.949773,-0.01441,0.00868,-0.99918,0.0003,0.00384,0.00088
1790742778.965324,-0.01322,0.0103,-0.99974,0.00332,0.0017,-0.0004
1790742778.985062,-0.01218,0.00947,-1.00072,0.00215,0.00087,0.00111
1790742779.025276,-0.01535,0.00854,-1.00074,-0.00011,0.00446,0.00399
1790742779.046598,-0.01702,0.00766,-0.99865,0.0008,0.00152,0.00378
1790742779.0652611,-0.01692,0.00889,-0.99812,0.00033,0.00106,0.00089
1790742779.084068,-0.01802,0.00912,-1.00102,0.00108,0.00435,-2e-05
1790742779.1035252,-0.01858,0.00681,-0.99899,-0.00067,-0.0004,0.00534
1790742779.127062,-0.01689,0.00865,-0.99859,0.00024,0.00421,-0.00114
1790742779.146065,-0.01565,0.00928,-1.0,0.00324,0.00251,0.00101
1790742779.167422,-0.01488,0.01006,-1.00065,0.00148,0.00373,6e-05
1790742779.186187,-0.01465,0.00918,-1.00009,0.00148,0.00339,0.00094
1790742779.224535,-0.01452,0.00785,-0.99993,3e-05,0.0021,0.0049
1790742779.24649,-0.01429,0.00922,-0.99974,0.00189,0.0022,0.00108
1790742779.270601,-0.0167,0.00751,-0.99938,-0.00032,0.00374,0.00015
1790742779.285467,-0.0149,0.00878,-0.9991,0.00292,0.00193,0.00215
1790742779.32411,-0.01582,0.0087,-0.99981,0.00373,0.00376,0.00057
1790742779.347539,-0.01622,0.00828,-0.99985,0.00224,0.00285,0.00021
1790742779.365921,-0.0164,0.00902,-0.99999,-0.00108,0.00292,0.00118
1790742779.3863292,-0.01721,0.00808,-0.99923,0.00059,0.00306,0.00034
1790742779.403934,-0.01568,0.00759,-0.99957,-0.00057,0.00257,0.00228
1790742779.445081,-0.0138,0.01085,-0.99947,0.00101,0.00176,-0.00019
1790742779.465364,-0.01395,0.00955,-0.99992,-0.0007,0.00086,0.00053
1790742779.4917529,-0.01506,0.00958,-0.99905,0.00105,0.0031,-0.0005
1790742779.499753,-0.01616,0.00775,-0.99866,0.00201,2e-05,0.00124
1790742779.545436,-0.01595,0.00902,-1.00042,0.00011,0.00042,-0.00065
1790742779.555587,-0.01527,0.00876,-1.00044,0.00125,0.00095,0.00327
1790742779.585249,-0.01544,0.00877,-0.99971,0.00221,0.0021,0.00206
1790742779.606261,-0.0161,0.00852,-0.99961,0.00237,0.00277,0.00168
1790742779.6253052,-0.01545,0.00961,-1.00054,0.00252,0.0027,0.00017
1790742779.6455228,-0.01576,0.00988,-1.00022,0.00369,0.00466,-9e-05
1790742779.6619809,-0.01649,0.00902,-0.99875,0.00162,0.00149,0.00216
1790742779.70517,-0.01743,0.00826,-1.00098,0.00228,0.00217,-0.00015
1790742779.7248378,-0.01622,0.00992,-1.00092,-0.00036,0.00193,-0.00043
1790742779.7521899,-0.01745,0.00757,-1.00129,0.00233,0.00225,0.00274
1790742779.767076,-0.01502,0.00844,-0.9999,0.00058,0.00237,0.00044
1790742779.806931,-0.01653,0.00873,-0.99938,0.00176,0.00503,0.00221
1790742779.824786,-0.01535,0.00894,-0.99988,-0.00041,0.0015,0.00065
1790742779.851468,-0.01464,0.00874,-0.99945,0.00203,0.00167,0.00028
1790742779.8658528,-0.01538,0.00876,-0.99813,0.00293,0.00283,0.00404
1790742779.884507,-0.01521,0.00918,-1.00023,0.0033,0.00385,0.00147
1790742779.9049768,-0.01602,0.01014,-1.0012,0.00263,0.00331,0.00124
1790742779.926953,-0.01623,0.00937,-0.9998,0.00101,0.00445,0.0038
1790742779.945375,-0.01608,0.00898,-0.99851,0.00024,0.00068,0.00136
1790742779.961272,-0.016,0.00822,-1.0003,0.00149,0.00284,0.00339
1790742779.984652,-0.01641,0.00855,-1.0,0.00051,0.0039,0.00122
1790742780.005769,-0.01642,0.00875,-0.99867,0.00201,0.00216,-0.00192
1790742780.026761,-0.01644,0.00932,-0.99762,-0.00055,0.00512,0.00106
1790742780.0470989,-0.01526,0.00832,-1.00006,0.00257,0.00179,0.00385
1790742780.0635462,-0.01592,0.00844,-1.00043,-0.00082,0.00311,0.00101
1790742780.0852559,-0.01494,0.00784,-1.0015,0.00025,0.00083,0.00227
1790742780.1060858,-0.01513,0.009,-1.00152,0.00225,0.00037,0.00146
1790742780.125896,-0.01572,0.00844,-0.99963,2e-05,0.00253,0.00217
1790742780.163522,-0.01556,0.01115,-1.00011,0.00078,-0.00075,-0.00176
1790742780.185048,-0.01702,0.00897,-1.00169,0.00371,0.00127,0.00262
1790742780.205023,-0.01592,0.00784,-0.99968,0.00299,0.00255,0.00241
1790742780.225211,-0.01424,0.00998,-0.9999,0.00204,0.0027,-0.00046
1790742780.2459881,-0.01577,0.00791,-0.99857,0.00445,-0.00063,0.00176
1790742780.2601862,-0.01705,0.00653,-1.00008,0.00161,0.00281,0.00425
1790742780.2902179,-0.01662,0.0089,-1.00114,-0.0013,0.00237,-0.00103
1790742780.304652,-0.01623,0.0084,-1.00047,0.00026,0.00258,0.00229
1790742780.317699,-0.01621,0.00966,-1.00046,0.00142,-0.00075,0.00047
1790742780.348139,-0.01641,0.00949,-1.0,0.00082,-0.00086,-5e-05
1790742780.365916,-0.01556,0.00928,-1.00004,0.00188,0.00254,0.00207
1790742780.389009,-0.01537,0.00893,-0.99969,0.00092,0.00188,0.00246
1790742780.4061399,-0.01505,0.00821,-0.99896,0.00262,0.00314,0.0038
1790742780.4261382,-0.0148,0.0101,-1.00041,0.00079,0.00127,0.00049
1790742780.445911,-0.01495,0.00774,-1.0012,0.00281,0.00357,0.00158
1790742780.463274,-0.01572,0.00868,-0.99905,0.00291,0.00135,0.00021
1790742780.483945,-0.01708,0.00905,-0.99969,0.0002,0.00371,0.00044
1790742780.504031,-0.0178,0.00816,-1.00091,0.00226,0.00447,0.00182
1790742780.52031,-0.01808,0.0079,-1.00021,0.00363,0.00074,0.00218
1790742780.5492458,-0.01708,0.00965,-0.99974,0.00056,0.00464,5e-05
1790742780.5607529,-0.01563,0.00905,-0.99996,0.00121,0.00147,0.00124
1790742780.58878,-0.01579,0.00757,-0.99916,0.00239,0.00318,0.0013
1790742780.604361,-0.01502,0.00913,-0.99999,-4e-05,0.00298,0.00033
1790742780.62381,-0.01518,0.00832,-0.99947,0.0014,0.00299,0.001
1790742780.647757,-0.01515,0.00771,-0.99927,-0.0012,0.00405,0.00236
1790742780.66886,-0.01419,0.01074,-1.0006,0.00263,0.00145,0.00114
1790742780.7055218,-0.01337,0.00783,-1.00051,-0.00028,0.00101,0.00198
1790742780.725792,-0.01349,0.00898,-1.00007,0.00062,0.00191,-0.00159
1790742780.7484212,-0.01479,0.00877,-0.99878,0.00115,0.0005,0.00218
1790742780.7675142,-0.01456,0.0088,-1.00005,0.00079,0.00183,0.0
1790742780.804885,-0.0159,0.00825,-0.99929,0.00177,0.0036,0.00162
1790742780.827455,-0.01729,0.00751,-0.99743,0.0029,0.00276,0.00309
1790742780.846931,-0.01626,0.00965,-0.99888,0.00077,0.00244,-8e-05
1790742780.8583732,-0.01654,0.00893,-1.00032,0.00326,0.00388,0.00318
1790742780.8891158,-0.01844,0.00817,-0.99999,0.0015,0.00239,0.00176
1790742780.905071,-0.01704,0.00836,-0.99947,0.00205,0.00222,0.00144
1790742780.926126,-0.01534,0.01003,-0.99983,0.00089,0.00325,-0.00016
1790742780.9490619,-0.01631,0.00888,-1.00137,0.00186,0.00468,0.00062
1790742780.960007,-0.01461,0.00935,-0.99999,0.00349,0.00025,0.0022
1790742780.990636,-0.01397,0.0088,-0.99939,0.00472,0.00398,0.00258
1790742781.005816,-0.01295,0.0086,-1.00158,-0.00052,0.00091,-0.00067
1790742781.048964,-0.01511,0.00804,-1.00058,-0.00086,0.00293,0.00185
1790742781.064723,-0.01644,0.00967,-1.00019,0.0005,0.00187,-0.00021
1790742781.088325,-0.0171,0.00783,-0.99999,0.00144,0.00204,0.00182
1790742781.105242,-0.01705,0.00842,-1.0,0.00205,0.00016,-0.00022
1790742781.1210911,-0.0168,0.00952,-0.9995,0.00022,0.00269,0.00097
1790742781.147038,-0.01635,0.01022,-0.99979,0.00127,-0.00075,0.00262
1790742781.160761,-0.01607,0.00952,-0.99941,0.00192,-0.00052,0.00091
1790742781.187265,-0.0166,0.00995,-0.99892,-0.001,0.0023,0.00068
1790742781.205033,-0.01675,0.00839,-0.99989,0.00199,0.00259,0.0008
1790742781.226697,-0.01498,0.00889,-0.9997,0.00292,0.00347,0.00026
1790742781.25186,-0.01475,0.00806,-0.99867,0.0008,0.0007,0.00344
1790742781.266263,-0.01509,0.00971,-0.99932,0.00144,0.00242,-0.00127
1790742781.285109,-0.01697,0.00789,-1.00107,-0.0001,0.00127,0.00268
1790742781.3039942,-0.01525,0.00908,-1.00045,0.002,0.00031,-0.00037
1790742781.3510568,-0.01566,0.00891,-1.00029,0.00288,0.00292,-0.00012
1790742781.362025,-0.01701,0.00882,-1.00065,0.00411,0.00211,0.00312
1790742781.388166,-0.01681,0.00895,-1.00037,0.0021,-0.00031,0.00071
1790742781.406097,-0.01618,0.01025,-1.00045,-0.00179,0.00108,-0.00069
1790742781.423611,-0.01792,0.00674,-1.00108,0.00179,0.00281,0.00449
1790742781.4477801,-0.01537,0.00973,-0.99987,0.00198,0.00166,0.0003
1790742781.4635599,-0.01472,0.00973,-0.99819,0.00117,0.00653,0.00011
1790742781.4883041,-0.01541,0.00826,-0.99954,0.00153,0.00093,0.00355
1790742781.504621,-0.01461,0.00827,-1.00023,0.00128,0.00346,-0.00019
1790742781.524129,-0.01445,0.00969,-0.99874,-0.00018,0.0037,0.00432
1790742781.54451,-0.01506,0.00825,-1.00127,0.00064,0.00288,0.00119
1790742781.5638158,-0.01475,0.00878,-0.99958,0.00588,0.0018,0.00132
1790742781.586764,-0.0173,0.00787,-1.00038,0.00337,0.00222,0.00255
1790742781.606058,-0.01672,0.00943,-0.99994,0.00064,0.00372,0.00046
1790742781.626236,-0.01651,0.00997,-0.9989,-0.00117,0.00084,0.00159
1790742781.6621912,-0.01761,0.00856,-0.99834,0.00114,0.00237,0.00261
1790742781.6899881,-0.01797,0.0104,-0.99815,0.00289,0.00152,-0.00327
1790742781.704868,-0.01711,0.00735,-0.9986,0.00256,0.00054,0.00245
1790742781.724996,-0.01441,0.01017,-1.00008,0.0034,0.00158,0.00299
1790742781.752485,-0.01321,0.00866,-1.00046,0.00307,-5e-05,0.00234
1790742781.786592,-0.01395,0.00741,-1.00098,0.0021,0.00122,0.00182
1790742781.8059351,-0.01374,0.00956,-1.00207,0.00266,0.00199,0.00053
1790742781.8258061,-0.01426,0.00908,-1.00036,0.00113,0.00067,0.00073
1790742781.844461,-0.01478,0.0089,-0.99957,0.003,0.0024,0.00081
1790742781.865966,-0.0142,0.00818,-0.99936,0.0016,0.00102,0.00169
1790742781.8849978,-0.01479,0.00884,-0.99931,0.00047,0.00196,0.00123
1790742781.905107,-0.01585,0.00841,-1.00057,0.00051,0.00174,0.00401
1790742781.9257112,-0.0161,0.00808,-0.99904,0.00169,0.00046,0.00251
1790742781.947125,-0.0172,0.00823,-0.99906,0.00315,0.00169,0.0008
1790742781.964873,-0.0175,0.00861,-0.99909,0.00251,0.00178,-0.0005
1790742781.989567,-0.01738,0.00854,-1.00052,0.00327,0.003,0.00375
1790742782.004382,-0.01749,0.00887,-1.00079,-0.00057,0.0026,0.00085
1790742782.0246668,-0.0166,0.00876,-1.00146,-0.00036,0.00382,0.00162
1790742782.06664,-0.01528,0.01048,-0.99902,0.00106,0.00508,0.00178
1790742782.086797,-0.01428,0.01027,-0.99821,0.00078,0.00108,0.002
1790742782.106123,-0.01407,0.00849,-1.00035,0.00183,0.00287,0.00205
1790742782.125049,-0.0138,0.00912,-0.99977,-0.0002,0.00252,0.00085
1790742782.145679,-0.01415,0.01105,-0.99887,0.00244,0.00483,0.00154
1790742782.167539,-0.01521,0.00893,-0.99918,0.00476,0.00116,0.0014
1790742782.188174,-0.01545,0.00741,-1.00025,0.00237,0.00357,0.00131
1790742782.205872,-0.01483,0.00873,-1.00141,0.0034,0.00162,0.00207
1790742782.225465,-0.01594,0.00845,-1.00102,0.00105,0.00058,0.00098
1790742782.246248,-0.0162,0.00858,-1.00026,7e-05,0.00238,0.00086
1790742782.263511,-0.01681,0.00898,-0.99897,0.00108,0.00345,0.0003
1790742782.280481,-0.01764,0.00942,-1.00063,0.00206,0.0023,0.00073
1790742782.3049889,-0.01783,0.00825,-1.00041,0.00235,0.00104,-0.00051
1790742782.320928,-0.01741,0.00983,-1.0003,0.00443,0.00141,-0.00023
1790742782.345483,-0.01654,0.00857,-1.00037,0.00146,0.00112,0.00391
1790742782.366088,-0.0144,0.00975,-0.99935,-0.0002,0.00073,0.00261
1790742782.388028,-0.01355,0.00812,-0.99869,0.00048,0.00327,0.00235
1790742782.42137,-0.01355,0.00956,-1.00045,0.00135,0.00322,-0.00077
1790742782.444535,-0.01321,0.009,-1.00147,0.00172,-0.00082,-0.00014
1790742782.465812,-0.0144,0.00711,-0.99994,0.00099,0.00137,0.00158
1790742782.480662,-0.01544,0.01036,-1.00002,0.00324,0.00109,-0.00041
1790742782.508985,-0.01581,0.00924,-1.00078,0.00188,0.00264,0.00177
1790742782.525248,-0.0171,0.00734,-1.00161,0.00258,0.00093,0.00235
1790742782.5450292,-0.01649,0.01,-0.9999,-0.00087,0.00229,0.00176
1790742782.564374,-0.01561,0.00947,-0.99993,0.00162,0.00155,0.00252
1790742782.5868301,-0.01662,0.00944,-0.99941,0.00153,0.00191,0.00045
1790742782.606438,-0.01407,0.0083,-0.99956,0.00022,0.00249,0.00174
1790742782.6261928,-0.013,0.0099,-1.0005,0.00093,0.00278,0.00345
1790742782.6454022,-0.01402,0.00842,-0.99826,0.00304,0.00325,0.00109
1790742782.666332,-0.01598,0.00808,-0.99966,-0.00055,0.00118,0.00107
1790742782.6792169,-0.01637,0.00784,-0.9998,0.00207,0.00302,0.00354
1790742782.7094789,-0.01535,0.00962,-1.00029,0.00176,0.00193,-9e-05
1790742782.725846,-0.01549,0.01015,-0.99976,0.00205,0.00356,0.00034
1790742782.7646039,-0.01566,0.00791,-0.99944,0.00206,0.00215,0.00359
1790742782.778347,-0.01541,0.00989,-1.00196,0.00026,0.00379,-0.00198
1790742782.803704,-0.01567,0.00913,-1.00102,0.00119,-0.00064,0.00311
1790742782.825192,-0.01578,0.00746,-0.99886,0.00053,0.00288,0.00321
1790742782.843929,-0.01477,0.01037,-0.99964,0.00267,0.00019,0.00132
1790742782.865463,-0.01547,0.00823,-0.99987,0.00245,0.00223,0.00406
1790742782.8806021,-0.01481,0.00696,-1.00126,0.00244,0.0036,0.00213
1790742782.9076962,-0.01434,0.00937,-1.00059,0.00203,0.00301,-0.00104
1790742782.925311,-0.01601,0.00821,-1.00088,0.00341,0.00329,0.00218
1790742782.951173,-0.01724,0.00702,-0.9995,0.00152,0.00394,0.00139
1790742782.966225,-0.01697,0.00884,-0.99949,-0.0001,0.00151,0.00029
1790742782.9807758,-0.01701,0.00976,-0.99971,0.00296,0.00325,0.00086
1790742783.009656,-0.01661,0.00703,-0.99934,-0.00022,0.00176,0.00198
1790742783.025785,-0.01618,0.00831,-1.00181,8e-05,0.00038,0.00168
1790742783.043926,-0.01577,0.01028,-1.00114,0.00271,0.00094,0.00217
1790742783.065675,-0.0152,0.00711,-0.99974,0.0007,0.00284,0.00104
1790742783.086761,-0.01389,0.00825,-0.9989,0.00293,0.00048,0.00034
1790742783.108315,-0.01327,0.0084,-0.99933,0.00231,0.00198,0.00157
1790742783.125804,-0.01502,0.00845,-0.99944,-0.00011,0.00106,0.00234
1790742783.14671,-0.0153,0.00891,-0.99908,0.00027,0.00326,-0.00083
1790742783.16506,-0.01597,0.00943,-0.99916,0.00155,0.00029,0.0014
1790742783.185966,-0.01585,0.00785,-0.99981,0.00202,0.00313,0.0021
1790742783.208967,-0.01648,0.00832,-1.00113,-0.00034,0.00215,0.00057
1790742783.22597,-0.0171,0.00907,-0.99921,0.00016,0.00426,0.00252
1790742783.266186,-0.01701,0.00797,-0.99926,0.00092,0.00189,0.0047
1790742783.276185,-0.01635,0.00978,-1.00108,0.00166,0.001,0.00035
1790742783.306852,-0.01631,0.00869,-1.00161,0.00242,0.00129,0.00334
1790742783.325927,-0.01563,0.0084,-1.00053,0.00038,0.00516,0.0012
1790742783.34533,-0.01504,0.00867,-1.00119,0.00019,6e-05,-0.00115
1790742783.3669288,-0.01474,0.00871,-0.99924,0.00097,0.00164,-0.00152
1790742783.383712,-0.01536,0.00819,-0.998,0.00311,0.00291,0.00382
1790742783.408812,-0.01497,0.00851,-1.0001,0.00053,0.00308,0.00167
1790742783.4261272,-0.01359,0.00835,-1.00026,-0.00049,0.00369,0.00036
1790742783.446571,-0.01396,0.00709,-0.99925,-5e-05,-0.00023,0.00313
1790742783.465936,-0.01484,0.00803,-0.99909,0.00278,0.00152,0.00329
1790742783.48645,-0.01602,0.01041,-0.99942,0.00084,0.00377,-0.00029
1790742783.5066109,-0.0172,0.00815,-0.99914,0.00084,0.00117,0.00218
1790742783.5258381,-0.01713,0.00684,-0.99894,0.00055,0.00116,0.00139
1790742783.5643132,-0.01563,0.01082,-0.99961,0.00265,0.00189,-0.00114
1790742783.585174,-0.01692,0.00857,-1.0,0.00337,0.00167,0.00205
1790742783.6059468,-0.01547,0.00829,-1.00066,0.00351,0.00384,0.00165
1790742783.623866,-0.01386,0.01038,-0.99974,0.00201,0.00047,-0.00273
1790742783.644622,-0.01436,0.00868,-0.99813,0.00026,-0.00022,0.00376
1790742783.665811,-0.01497,0.00885,-0.99922,-0.0003,0.00223,-0.00269
1790742783.678259,-0.01504,0.01061,-0.99965,0.00026,-0.00088,0.00178
1790742783.705622,-0.01526,0.00818,-1.00061,0.00047,0.00315,0.00453
1790742783.7258081,-0.01468,0.00917,-1.00114,0.00016,0.00038,0.00168
1790742783.7474282,-0.0153,0.00929,-1.00095,0.00309,0.00457,0.00099
1790742783.7669241,-0.01493,0.00957,-1.00068,0.00143,0.00309,0.00109
1790742783.781609,-0.01464,0.0095,-0.99935,0.00346,0.00219,0.00169
1790742783.805599,-0.01506,0.00763,-0.99987,0.00286,0.00163,0.00334
1790742783.823848,-0.01525,0.00936,-1.00029,0.00118,0.00164,-0.0016
1790742783.865055,-0.017,0.00904,-1.00109,0.00035,0.00235,0.00445
1790742783.884394,-0.01692,0.0093,-0.99983,0.00091,0.00342,-0.00033
1790742783.907418,-0.01517,0.00894,-0.99915,0.00018,0.00208,-0.00098
1790742783.927517,-0.01482,0.00815,-0.99824,0.00397,0.00161,0.00149
1790742783.946184,-0.0139,0.00819,-1.00046,0.00149,0.0007,0.00258
1790742783.9647691,-0.01562,0.00675,-1.00008,0.00327,0.00233,0.00194
1790742784.006835,-0.01589,0.00988,-0.99953,0.00299,0.00417,0.0008
1790742784.0256,-0.01514,0.00857,-0.99942,0.0025,0.00293,0.00232
1790742784.044367,-0.01665,0.00739,-1.00026,0.00037,0.00154,0.00323
1790742784.066098,-0.01744,0.00845,-1.00049,0.00211,0.00311,0.00042
1790742784.0841632,-0.01666,0.00967,-0.99873,0.00306,0.00426,0.00079
1790742784.1056588,-0.01651,0.00871,-0.99859,0.00114,0.00051,0.00178
1790742784.125068,-0.01598,0.0096,-0.9992,-0.00115,0.00427,0.00107
1790742784.145536,-0.01689,0.00808,-1.00021,0.00203,0.00325,0.00046
1790742784.1650188,-0.01601,0.00908,-1.00058,0.00112,0.00275,0.0006
1790742784.178244,-0.01601,0.00908,-1.00058,0.00112,0.00275,0.0006
1790742784.2052732,-0.01479,0.00823,-1.00018,0.00084,0.00396,0.00134
1790742784.225482,-0.01525,0.00826,-0.9982,0.00088,0.0028,0.002
1790742784.249404,-0.01507,0.00961,-0.99953,0.00395,0.00331,0.00016
1790742784.281913,-0.01525,0.00787,-1.00093,0.00294,0.00147,0.00229
1790742784.304746,-0.0151,0.00926,-1.00016,0.00065,0.00145,-0.00087
1790742784.3248901,-0.01525,0.00827,-0.99986,0.00025,-0.00016,0.00397
1790742784.348674,-0.0154,0.00825,-1.00013,0.00101,0.00116,-0.00172
1790742784.363405,-0.01689,0.01036,-0.99992,0.00312,0.0047,0.00016
1790742784.386847,-0.01823,0.00866,-1.0001,0.00442,0.00243,0.00032
1790742784.408233,-0.01696,0.00819,-1.00036,0.00172,0.00228,9e-05
1790742784.4249659,-0.01564,0.00936,-1.00123,0.00164,-0.00026,0.002
1790742784.4480472,-0.01515,0.00823,-1.00167,0.00238,0.00256,0.00123
1790742784.464899,-0.01453,0.00928,-1.00075,-0.00129,0.00401,0.00133
1790742784.484777,-0.01437,0.00811,-1.00042,-0.0005,0.0024,0.00382
1790742784.50631,-0.01465,0.00859,-1.00029,0.00193,0.00239,0.0008
1790742784.524976,-0.01451,0.00927,-0.99999,0.00042,0.0007,0.00112
1790742784.5448692,-0.01456,0.00957,-0.99954,0.00354,0.00302,0.0032
1790742784.564992,-0.01404,0.00989,-1.00084,0.00055,0.00191,-0.00064
1790742784.5849202,-0.01554,0.00759,-1.00051,0.00103,0.00339,0.00332
1790742784.606433,-0.01725,0.00908,-0.99885,0.00316,0.00081,-0.0003
1790742784.6255412,-0.0171,0.00811,-0.99863,0.00048,-0.00124,0.00214
1790742784.661848,-0.01637,0.00978,-0.99964,0.00172,0.00127,-3e-05
1790742784.662452,-0.01726,0.00916,-0.99737,0.00044,0.00196,0.00387
1790742784.685738,-0.01753,0.00906,-0.99955,0.00056,0.00135,0.0021
1790742784.7259588,-0.01638,0.00826,-0.99998,0.00087,0.00077,0.00252
1790742784.747946,-0.01456,0.00794,-1.00105,0.00363,0.00057,0.0009
1790742784.766109,-0.01432,0.0102,-1.00054,0.00297,0.00089,0.00127
1790742784.784169,-0.01373,0.00848,-0.99836,0.00181,0.00429,0.00157
1790742784.8002481,-0.01409,0.00984,-0.99821,0.00027,0.0025,-0.00184
1790742784.8259132,-0.01499,0.00814,-0.99953,0.00093,0.00248,0.00311
1790742784.849727,-0.01488,0.00835,-1.00033,0.00274,0.00238,0.00105
1790742784.865818,-0.01645,0.00932,-0.99939,-0.00057,0.00285,0.00116
1790742784.8860538,-0.01696,0.00923,-1.00033,0.0025,0.00255,-0.00027
1790742784.907416,-0.01657,0.00895,-0.99922,-9e-05,0.00252,0.00108
1790742784.925998,-0.0162,0.00867,-0.99989,-0.00052,0.00224,0.00043
1790742784.9481568,-0.01595,0.00969,-0.99881,0.00219,0.00139,0.00207
1790742784.96645,-0.01765,0.00779,-0.99876,0.00031,0.00388,0.00204
1790742784.9852679,-0.01626,0.00837,-0.99936,0.0016,0.00208,0.00028
1790742785.007797,-0.01537,0.00842,-0.9985,0.00129,-0.00033,0.00219
1790742785.0258749,-0.01521,0.00835,-1.00042,0.00055,0.00363,0.00128
1790742785.049697,-0.01533,0.0082,-1.00125,0.0011,0.00293,0.00112
1790742785.067192,-0.01499,0.01027,-0.99946,0.00213,0.00134,0.00156
1790742785.0902069,-0.01475,0.00934,-0.99902,-0.00116,0.00274,0.00143
1790742785.12495,-0.01475,0.00934,-0.99902,-0.00116,0.00274,0.00143
1790742785.13792,-0.0149,0.0086,-1.00052,0.00188,0.0013,0.00016
1790742785.1644108,-0.01457,0.00783,-0.99986,0.00423,0.00096,0.00117
1790742785.1846788,-0.01477,0.01024,-0.99954,0.00166,0.00159,0.00106
1790742785.206607,-0.01577,0.00913,-0.99867,0.00244,0.00301,0.00277
1790742785.220974,-0.01594,0.0096,-0.99883,0.00385,0.00075,0.00112
1790742785.2400022,-0.01447,0.01121,-0.99911,-0.0004,0.00494,0.00048
1790742785.26466,-0.01548,0.00912,-0.99932,0.00355,0.0005,0.00115
1790742785.285467,-0.01676,0.00693,-1.00034,0.00126,0.00301,0.00083
1790742785.296095,-0.0166,0.00966,-1.0014,0.00073,0.00133,0.00153
1790742785.327151,-0.01605,0.00853,-1.00123,-0.00201,0.00248,0.0037
1790742785.339967,-0.01522,0.01015,-1.00072,0.0035,0.00269,0.00163
1790742785.365858,-0.01561,0.00806,-0.99992,0.00148,0.00224,0.00243
1790742785.386542,-0.0155,0.0087,-0.99975,-0.00033,0.00151,0.00174
1790742785.4006531,-0.01429,0.00914,-1.00076,0.00236,0.00014,-0.00062
1790742785.425044,-0.01574,0.0085,-1.00199,0.00402,0.00309,0.00213
1790742785.464899,-0.01624,0.00934,-1.00094,0.00146,0.00145,0.00025
1790742785.4847639,-0.01541,0.00994,-1.00134,0.00065,0.00289,0.00075
1790742785.507987,-0.01645,0.00571,-1.00091,0.00081,0.00102,0.00386
1790742785.525301,-0.01508,0.00937,-0.99974,0.00092,0.00338,0.00048
1790742785.545069,-0.01535,0.00982,-1.00031,0.00172,0.00175,0.00049
1790742785.563589,-0.01611,0.00952,-0.99875,0.00229,0.00167,0.00063
1790742785.585215,-0.01516,0.00901,-0.99964,0.00312,0.0017,0.00122
1790742785.607998,-0.01536,0.00919,-0.99988,0.00144,0.00217,0.00141
1790742785.623413,-0.01447,0.00869,-0.99971,0.00282,0.00338,0.00233
1790742785.649649,-0.01524,0.00931,-0.99994,0.00142,0.00332,0.0027
1790742785.665067,-0.01506,0.00896,-1.00037,0.00132,0.00302,0.00037
1790742785.6852338,-0.01577,0.00735,-1.00025,0.00103,0.00258,0.00122
1790742785.724021,-0.01556,0.00864,-1.00092,0.0004,0.00277,0.00236
1790742785.7497962,-0.01648,0.00847,-1.00077,0.00233,0.0023,-0.00048
1790742785.764727,-0.0157,0.00798,-1.00055,-0.00039,0.00141,0.00273
1790742785.78558,-0.01592,0.0092,-1.00064,8e-05,0.00152,0.00255
1790742785.8071349,-0.01636,0.00927,-0.99903,0.00307,0.00085,-0.00213
1790742785.826101,-0.01617,0.00905,-0.99943,-0.00044,0.00104,0.00087
1790742785.844033,-0.01596,0.00823,-1.00024,0.00117,0.00134,0.00195
1790742785.863602,-0.01589,0.00805,-1.00004,-0.00332,0.00152,0.00275
1790742785.885875,-0.01582,0.00985,-0.99962,0.00214,0.00265,0.00037
1790742785.9233348,-0.0162,0.00885,-1.001,0.00113,0.00252,0.00328
1790742785.9430919,-0.01513,0.00925,-1.00031,0.00326,0.00317,0.00265
1790742785.963704,-0.01443,0.01033,-1.00167,0.00209,0.00225,-0.00076
1790742785.983367,-0.01516,0.00853,-1.00017,0.00314,0.00236,0.00378
1790742785.992807,-0.01524,0.00798,-0.99862,0.00138,0.00272,0.00121
1790742786.026134,-0.01517,0.00917,-1.00063,0.00123,-0.00122,-0.00111
1790742786.048129,-0.01544,0.00838,-1.00084,0.00197,0.00181,0.00496
1790742786.0648751,-0.01439,0.01029,-1.0001,-0.00062,0.00503,0.00214
1790742786.085674,-0.01636,0.00918,-0.99852,-0.00077,-0.00036,0.00057
1790742786.098258,-0.01671,0.00833,-0.99973,0.00257,0.00128,0.00403
1790742786.128097,-0.01545,0.01053,-1.00007,0.00101,0.00203,-0.00076
1790742786.145947,-0.01551,0.00935,-1.0018,0.00075,0.00289,0.00342
1790742786.1648698,-0.01489,0.00769,-1.00043,0.00052,0.00213,0.00243
1790742786.211036,-0.01591,0.00829,-1.00169,0.00168,0.00109,0.00187
1790742786.2528262,-0.01499,0.00927,-0.99978,0.00011,0.00248,0.00242
1790742786.2661388,-0.01703,0.00886,-1.00111,-0.0011,0.0006,0.00034
1790742786.284369,-0.01534,0.0101,-1.00076,0.00234,0.00153,-0.0004
1790742786.297738,-0.01534,0.0101,-1.00076,0.00234,0.00153,-0.0004
1790742786.324814,-0.01517,0.00881,-0.9991,0.00084,0.00126,0.0009
1790742786.340935,-0.0142,0.00928,-1.00092,0.00047,0.00345,0.00041
1790742786.36801,-0.0147,0.00789,-0.99957,0.00204,0.00198,0.00304
1790742786.385773,-0.01438,0.00942,-0.99826,0.00234,0.00142,0.00091
1790742786.403432,-0.01526,0.00779,-1.00063,0.00081,0.00084,0.00305
1790742786.445694,-0.01698,0.00866,-1.00155,0.00169,0.00245,0.00218
1790742786.4527009,-0.01667,0.00922,-1.00112,0.00076,0.00161,0.00189
1790742786.484475,-0.01623,0.00826,-1.00183,8e-05,0.00147,0.0031
1790742786.507423,-0.0165,0.00914,-1.0007,-0.00205,0.00319,0.00163
1790742786.525449,-0.0175,0.0115,-0.9989,0.00337,0.00267,0.00201
1790742786.5478358,-0.01819,0.00908,-0.99988,-0.00035,0.00411,0.00153
1790742786.557753,-0.01559,0.00923,-0.99911,0.00062,0.00402,0.0015
1790742786.584586,-0.01456,0.00855,-0.99958,0.00279,-0.00035,0.00047
1790742786.606655,-0.01477,0.00793,-1.00062,0.00055,0.00283,0.00275
1790742786.625695,-0.01424,0.00889,-0.99869,0.0002,0.0028,0.00118
1790742786.646764,-0.01472,0.01116,-1.00073,0.00118,0.00186,-0.00034
1790742786.6581252,-0.01583,0.0091,-1.00058,0.00377,0.0039,0.00207
1790742786.685625,-0.01446,0.01046,-0.99929,0.00355,-0.00047,0.00089
1790742786.706835,-0.01465,0.0081,-1.00045,0.00458,0.00205,0.00337
1790742786.72518,-0.01466,0.00852,-1.00007,0.00099,0.00174,-0.00044
1790742786.747184,-0.01481,0.00893,-0.99917,0.00186,0.00284,-1e-05
1790742786.7622101,-0.01483,0.00836,-1.00198,0.00187,0.00537,0.00336
1790742786.785496,-0.01416,0.00906,-1.0004,0.00211,0.00217,0.00056
1790742786.806366,-0.0155,0.00779,-0.99921,0.00484,0.00472,0.0034
1790742786.8463502,-0.01623,0.00911,-1.00083,0.00083,0.00235,0.00328
1790742786.865128,-0.01645,0.00943,-1.00046,0.00262,0.00293,-0.0004
1790742786.885922,-0.01834,0.00804,-1.00051,0.00431,7e-05,0.00395
1790742786.907169,-0.01792,0.00912,-0.99887,0.00269,0.00204,0.00262
1790742786.9244401,-0.0156,0.00945,-0.99795,0.00108,0.0024,0.00254
1790742786.947005,-0.01512,0.00906,-0.99953,0.00382,0.00216,0.00282
1790742786.96609,-0.0152,0.00961,-1.00034,-0.00242,0.00225,-0.00068
1790742786.985994,-0.01465,0.00904,-1.00142,0.00145,0.00274,0.00178
1790742787.00712,-0.01575,0.00864,-1.00127,0.00185,0.00193,-0.00207
1790742787.026189,-0.01485,0.00991,-1.00085,-0.00059,0.00302,0.00094
1790742787.048129,-0.01533,0.00812,-1.00067,0.00184,0.00183,0.00115
1790742787.0668359,-0.0149,0.01031,-0.99973,0.00194,0.0005,0.00202
1790742787.085979,-0.0158,0.00934,-1.00112,0.00274,0.00294,0.00134
1790742787.108861,-0.0158,0.00934,-1.00112,0.00274,0.00294,0.00134
1790742787.151797,-0.01574,0.00956,-1.0025,0.00367,0.00047,0.00071
1790742787.1623979,-0.01662,0.01018,-1.00349,0.00171,0.00264,0.0017
1790742787.185889,-0.01673,0.00832,-1.00108,0.00238,0.00192,0.00064
1790742787.2076328,-0.01472,0.00968,-1.00027,0.0039,0.00226,0.00011
1790742787.2249448,-0.01495,0.00854,-1.00071,0.00172,0.00095,0.00466
1790742787.250315,-0.01563,0.00901,-1.00056,0.00143,0.00186,0.00089
1790742787.268512,-0.01423,0.00905,-1.00033,0.00234,0.00127,-0.00018
1790742787.285759,-0.01427,0.00714,-1.00093,0.00307,-0.00063,0.00552
1790742787.306504,-0.0154,0.00758,-1.00095,0.00249,0.00242,1e-05
1790742787.3233721,-0.01623,0.00894,-0.9997,0.00399,0.00393,0.00178
1790742787.346833,-0.01631,0.00982,-1.00117,0.00277,0.00203,0.0008
1790742787.358429,-0.01574,0.00945,-1.00304,0.00135,0.00207,0.00191
1790742787.383751,-0.01617,0.00945,-1.00036,0.00247,0.00175,0.00265
1790742787.404772,-0.01678,0.00985,-1.00029,0.00177,0.00292,0.00172
1790742787.444729,-0.01767,0.00981,-0.99895,-0.00041,0.00182,0.00112
1790742787.461789,-0.01739,0.00808,-0.99955,0.00189,0.00162,0.00463
1790742787.4864352,-0.01499,0.00941,-1.00082,0.00142,0.00226,0.00243
1790742787.505257,-0.01476,0.00935,-1.00061,0.00223,9e-05,3e-05
1790742787.5173702,-0.0144,0.00859,-1.00142,0.00253,0.00476,-0.00107
1790742787.546377,-0.01456,0.00874,-1.00247,0.00095,0.00144,0.00181
1790742787.560918,-0.0147,0.0086,-1.00172,0.00023,0.00153,0.00268
1790742787.585324,-0.01569,0.00895,-0.99979,0.00151,0.00145,0.00141
1790742787.605312,-0.0154,0.00921,-1.00065,0.00121,0.00165,0.00086
1790742787.620221,-0.0161,0.00843,-1.00203,0.00083,0.00187,0.00194
1790742787.645945,-0.01587,0.01025,-1.00187,0.00039,0.00177,8e-05
1790742787.666634,-0.01711,0.00954,-1.00114,0.0033,0.00593,-0.00026
1790742787.684789,-0.01828,0.00729,-0.99812,0.003,0.00309,0.0025
1790742787.70436,-0.01754,0.00852,-1.00125,0.00368,9e-05,0.00042
1790742787.720881,-0.0176,0.00957,-1.00099,0.00213,0.00184,0.00082
1790742787.746845,-0.01555,0.00923,-0.99919,0.00164,0.00164,0.00022
1790742787.78413,-0.01467,0.00863,-0.99903,0.00024,-0.00079,-4e-05
1790742787.8031511,-0.01462,0.00825,-1.00073,0.00172,0.00119,0.00183
1790742787.817759,-0.01425,0.00898,-1.00033,0.0002,-0.00079,-0.00095
1790742787.845678,-0.01482,0.00692,-1.00174,0.00199,0.00107,0.00406
1790742787.86798,-0.01502,0.0096,-1.00213,0.00119,0.00382,0.00111
1790742787.883765,-0.01441,0.01028,-1.00276,0.00272,0.003,-2e-05
1790742787.906224,-0.01562,0.00797,-0.99987,0.00249,0.00404,0.0022
1790742787.924932,-0.01557,0.00896,-0.99969,0.00095,0.00386,0.00124
1790742787.946468,-0.01769,0.00728,-1.00146,0.00101,0.00151,0.0008
1790742787.969547,-0.01734,0.00878,-1.00099,0.00202,0.00306,0.00071
1790742787.984375,-0.01722,0.00835,-0.999,0.00227,0.0001,0.00216
1790742788.026195,-0.01688,0.00763,-0.99939,0.00097,0.00174,0.00214
1790742788.045896,-0.01669,0.00986,-0.9998,-0.00133,0.00291,0.00208
1790742788.056097,-0.01713,0.00822,-1.00094,0.0015,0.00404,0.00148
1790742788.083599,-0.01602,0.00677,-1.00003,0.00245,0.00188,0.0024
1790742788.104981,-0.0143,0.00898,-0.99788,0.00079,0.00282,0.00034
1790742788.124948,-0.01492,0.00934,-0.99983,0.00272,0.00307,0.00119
1790742788.145801,-0.01515,0.00691,-1.001,-0.00061,0.00095,0.00271
1790742788.160424,-0.01386,0.00786,-0.99961,0.00125,0.00372,0.00053
1790742788.183268,-0.01552,0.0086,-0.99937,-0.00019,0.00044,0.00495
1790742788.203732,-0.01645,0.00777,-1.0008,-0.00123,0.00141,0.00191
1790742788.2183511,-0.0161,0.00672,-0.99946,0.00026,0.00315,0.00222
1790742788.248918,-0.01779,0.00817,-1.0002,0.00268,0.00096,0.00042
1790742788.285739,-0.01728,0.00989,-0.99965,0.0035,0.00271,-5e-05
1790742788.305859,-0.0167,0.0082,-0.99828,0.00243,-0.00034,0.00471
1790742788.318151,-0.01543,0.0083,-1.00068,0.00058,0.0033,0.00127
1790742788.3464608,-0.01569,0.00904,-1.00058,-0.00064,0.00212,-0.00156
1790742788.357585,-0.01658,0.00755,-0.99927,0.00319,0.00177,0.00391
1790742788.385538,-0.01574,0.0099,-1.00059,0.00288,0.0023,0.00119
1790742788.403622,-0.01451,0.00978,-1.00045,0.00272,0.00196,0.00077
1790742788.433707,-0.01318,0.01069,-0.99991,0.00073,0.00428,0.00231
1790742788.466526,-0.01419,0.00868,-0.99875,0.0018,0.00102,0.00145
1790742788.486448,-0.01441,0.00801,-0.99871,0.0044,0.00052,0.00224
1790742788.5052319,-0.01488,0.01058,-1.00007,0.00033,0.0041,3e-05
1790742788.525955,-0.0157,0.00888,-1.00037,-0.00032,0.00295,0.00032
1790742788.5449579,-0.01483,0.00858,-0.99813,-0.00013,0.00231,0.00031
1790742788.559902,-0.01563,0.00812,-0.9996,0.00169,0.00343,0.00335
1790742788.584367,-0.01544,0.00999,-1.00026,-0.00053,0.00025,0.00264
1790742788.606438,-0.01541,0.00894,-1.00098,0.00256,0.00411,0.00556
1790742788.621808,-0.01604,0.00932,-1.00092,0.00152,0.00067,0.00165
1790742788.645623,-0.01519,0.00857,-0.99903,0.00042,0.00361,0.00272
1790742788.6651032,-0.01493,0.00744,-0.99983,0.00352,0.00355,0.00156
1790742788.684206,-0.01518,0.00933,-1.00067,0.00452,0.00293,0.00111
1790742788.710274,-0.01616,0.00826,-1.00003,0.00277,0.00352,0.00161
1790742788.725533,-0.01546,0.00903,-1.0004,0.00205,0.00213,0.00168
1790742788.765056,-0.01488,0.00801,-1.00063,0.00116,0.00209,-0.00018
1790742788.784927,-0.01643,0.00791,-0.99981,-0.00054,0.00195,0.00325
1790742788.8058739,-0.01675,0.0088,-0.99988,0.00261,0.00326,-0.00242
1790742788.8203142,-0.01527,0.00895,-1.00062,8e-05,0.00388,0.00189
1790742788.843883,-0.01512,0.00757,-1.00035,-0.00013,0.00278,0.00319
1790742788.865598,-0.01328,0.01052,-0.99987,0.00144,0.00335,0.00285
1790742788.884235,-0.01562,0.01007,-1.00047,0.00175,0.00451,0.00068
1790742788.90876,-0.01793,0.00664,-1.00008,0.00259,-0.00089,0.00368
1790742788.917878,-0.01659,0.00917,-0.99841,-0.00026,0.00257,-0.00037
1790742788.94485,-0.01581,0.00811,-1.00096,0.00018,0.00223,0.00439
1790742788.9662158,-0.01497,0.00951,-1.00059,-0.00082,0.00282,-6e-05
1790742788.985926,-0.0151,0.00962,-0.99938,0.00146,0.00388,0.00102
1790742789.0109692,-0.01547,0.00721,-1.00052,0.00041,0.00394,0.00441
1790742789.044343,-0.01434,0.00812,-0.9996,0.00184,0.0055,-0.00028
1790742789.065194,-0.01454,0.00822,-0.99952,0.0024,0.00214,0.00175
1790742789.085034,-0.01642,0.00752,-1.0,0.00159,-0.00061,0.00223
1790742789.104291,-0.01432,0.01098,-1.00057,0.00065,0.00182,0.00133
1790742789.1242821,-0.01382,0.00824,-0.99962,0.00342,0.00167,0.00129
1790742789.146066,-0.01419,0.00803,-0.99946,0.00241,0.00401,0.0014
1790742789.1657422,-0.01517,0.01088,-1.0011,0.0017,0.00114,-0.00103
1790742789.185605,-0.01621,0.00865,-1.00162,0.00154,0.00279,0.00093
1790742789.205911,-0.01623,0.00724,-1.0006,0.00045,0.00485,0.00377
1790742789.22052,-0.0174,0.00855,-1.00013,0.00173,0.00411,-0.00025
1790742789.245698,-0.01863,0.00948,-0.9998,0.00163,0.0018,0.00284
1790742789.285507,-0.0161,0.00953,-1.00123,-0.00014,0.00202,0.00255
1790742789.307094,-0.01588,0.00744,-1.00131,0.00185,-0.00048,0.00388
1790742789.3210208,-0.01441,0.00911,-1.00027,0.00185,0.00319,0.00254
1790742789.348043,-0.01354,0.00939,-0.99975,0.00542,0.00308,0.00021
1790742789.365807,-0.01434,0.00745,-0.99919,-0.0009,0.00186,0.00365
1790742789.3859541,-0.01367,0.00915,-0.9991,0.00097,0.00089,-0.00082
1790742789.4066072,-0.01401,0.00944,-0.99843,0.00323,0.0004,0.00187
1790742789.423231,-0.01558,0.00896,-0.99974,0.00212,0.00522,0.00387
1790742789.445604,-0.01553,0.00887,-1.00065,0.00047,0.00326,0.00231
1790742789.4655218,-0.01494,0.0102,-1.00188,0.00145,0.00325,0.00164
1790742789.485439,-0.01584,0.0081,-1.00142,-0.00205,0.00325,0.00384
1790742789.506767,-0.01748,0.00898,-0.99961,-0.00012,0.00288,0.00085
1790742789.516978,-0.01771,0.00827,-0.99892,-0.00073,0.00255,0.00126
1790742789.545768,-0.01824,0.00888,-0.99977,-3e-05,0.00144,0.0011
1790742789.5681448,-0.01529,0.00793,-0.99929,0.00198,0.0019,0.00281
1790742789.585579,-0.01385,0.00887,-1.00055,6e-05,-1e-05,0.00026
1790742789.6078122,-0.01426,0.00794,-0.99992,-0.0009,0.00228,0.00278
1790742789.622256,-0.01448,0.00858,-0.99918,0.00114,0.00128,0.00353
1790742789.645386,-0.01414,0.00832,-1.0015,0.00025,0.00359,0.00275
1790742789.674148,-0.01506,0.00847,-1.00111,0.00258,0.00197,0.00374
1790742789.70578,-0.01497,0.00956,-1.00226,0.00396,0.00118,0.00322
1790742789.723077,-0.01606,0.00895,-1.00144,0.00038,0.00229,0.00064
1790742789.744289,-0.017,0.00752,-0.99946,0.00381,0.00298,0.00198
1790742789.768984,-0.01616,0.01065,-0.99914,0.002,-6e-05,-0.00053
1790742789.778731,-0.0162,0.00856,-1.00032,0.00293,0.00059,0.00177
1790742789.8048902,-0.01462,0.00905,-0.99904,0.00184,0.00284,0.00261
1790742789.8254158,-0.01489,0.00995,-0.99934,0.00032,0.00512,0.00075
1790742789.844948,-0.01652,0.00888,-1.00015,0.00093,0.00332,0.00211
1790742789.8682399,-0.01606,0.00939,-1.00118,0.00069,0.00255,0.00029
1790742789.88312,-0.01667,0.0089,-1.00035,0.00388,0.00205,0.00177
1790742789.903747,-0.01456,0.00895,-1.00115,0.00235,0.00144,0.00362
1790742789.9241579,-0.01504,0.00938,-1.00017,0.00048,0.00191,0.0015
1790742789.943927,-0.01439,0.00833,-0.99985,0.00387,6e-05,0.00439
1790742789.9687948,-0.01505,0.00889,-1.00068,0.00199,0.00221,0.00142
1790742789.97924,-0.01585,0.01042,-1.00134,0.00109,0.00393,0.00148
1790742790.0094469,-0.01777,0.00862,-1.00149,0.00032,0.00341,0.00555
1790742790.026897,-0.01612,0.01023,-1.00053,-1e-05,0.00268,0.00054
1790742790.04479,-0.01488,0.00972,-1.00045,0.00121,0.00327,0.00219
1790742790.067512,-0.01416,0.00946,-1.00199,0.00203,0.00152,0.00258
1790742790.0814059,-0.01372,0.00954,-1.00183,0.00301,0.0038,0.00094
1790742790.1087449,-0.01448,0.00997,-0.99997,-0.00012,0.00057,0.00312
1790742790.120466,-0.01579,0.01121,-1.00071,0.00079,-0.00062,0.00247
1790742790.144864,-0.01617,0.00849,-1.00106,0.00056,0.00095,0.00328
1790742790.184208,-0.0161,0.0093,-1.00006,0.00083,-0.00043,0.0026
1790742790.1852958,-0.01742,0.00935,-1.00029,0.00358,0.00033,-0.0003
1790742790.208695,-0.01797,0.00848,-0.99965,0.00016,0.00234,0.00284
1790742790.244462,-0.01629,0.00885,-0.99829,0.00011,0.00242,0.00343
1790742790.2662778,-0.01548,0.0104,-0.99841,0.00044,0.00153,0.00142
1790742790.2828841,-0.01797,0.00841,-0.99905,0.00313,0.00288,0.00304
1790742790.3043451,-0.01301,0.01016,-1.00114,0.00171,-0.00031,-0.00064
1790742790.324831,-0.01498,0.00909,-0.99972,0.00265,0.00254,0.00288
1790742790.345684,-0.01399,0.00925,-0.99927,0.00126,0.00177,0.00127
1790742790.366294,-0.01501,0.00798,-1.00134,0.00268,0.00259,0.00081
1790742790.3861141,-0.0147,0.00893,-1.00123,0.00307,0.00147,0.00257
1790742790.40571,-0.01344,0.00965,-0.9986,0.00185,0.00217,0.00186
1790742790.425628,-0.01471,0.00811,-0.99947,0.00214,0.00435,0.00169
1790742790.4476538,-0.01472,0.00894,-1.00176,0.0025,0.0036,0.00131
1790742790.485528,-0.01578,0.00806,-1.00032,0.00148,0.00189,0.00366
1790742790.504547,-0.01683,0.00871,-1.00036,0.00174,0.0033,0.00176
1790742790.5260758,-0.01721,0.01047,-1.00093,-0.00017,0.00423,0.00149
1790742790.544937,-0.01749,0.00924,-1.00089,3e-05,0.00349,0.00217
1790742790.564472,-0.01637,0.00743,-0.99916,0.00443,0.00304,0.00397
1790742790.5806358,-0.01568,0.00949,-0.99847,0.0004,0.00307,0.00027
1790742790.6092641,-0.01688,0.00861,-1.00126,0.00161,0.00077,0.00299
1790742790.626532,-0.01613,0.00879,-1.00169,0.00332,0.00173,0.00039
1790742790.6442728,-0.01511,0.00818,-0.9996,0.00374,0.00222,0.00034
1790742790.6694632,-0.01466,0.00938,-0.99796,-0.00018,0.00101,0.00241
1790742790.684761,-0.01643,0.00971,-1.00035,0.00243,-0.00051,-0.00165
1790742790.708728,-0.01694,0.00839,-1.00059,0.00055,0.00302,0.00116
1790742790.7250938,-0.01635,0.00805,-1.00008,0.0013,0.00131,0.00348
1790742790.764791,-0.01626,0.00883,-1.00028,0.00168,0.00222,0.00108
1790742790.784647,-0.01573,0.00971,-1.0025,0.002,0.00109,0.00252
1790742790.804738,-0.01567,0.00834,-1.0028,0.00215,0.00538,0.00356
1790742790.824661,-0.01417,0.01034,-1.00076,0.0027,0.00211,0.00159
1790742790.8353631,-0.01419,0.0088,-0.99992,0.00146,0.00137,0.00324
1790742790.864834,-0.0139,0.01048,-1.00011,0.00268,0.00419,0.00174
1790742790.877942,-0.01597,0.00939,-1.00071,0.00232,0.00195,-0.00115
1790742790.907396,-0.01646,0.00799,-1.00047,0.00179,0.00231,0.00316
1790742790.924683,-0.01544,0.00844,-1.0017,0.00299,0.004,0.00045
1790742790.9376929,-0.01702,0.00843,-1.00144,0.00224,0.00145,0.00363
1790742790.963778,-0.01784,0.00891,-0.99979,0.00119,0.0024,0.0008
1790742790.978827,-0.01647,0.01042,-0.9998,0.00374,0.00672,-0.00058
1790742791.0065532,-0.01558,0.00958,-0.99992,0.00238,0.00117,0.00097
1790742791.0248342,-0.01654,0.0071,-1.00025,0.00276,0.00309,0.00401
1790742791.040138,-0.0144,0.00972,-1.00007,0.0022,0.00364,-0.00212
1790742791.064694,-0.01398,0.00913,-0.99968,0.00251,0.00278,0.00314
1790742791.081679,-0.01484,0.00986,-1.00058,-4e-05,0.00434,0.0003
1790742791.1052501,-0.01506,0.0088,-0.99991,0.00444,0.00264,0.00065
1790742791.127122,-0.01458,0.00851,-1.00137,0.00188,-0.00155,0.00278
1790742791.146227,-0.01467,0.00865,-1.00154,0.00355,-0.00018,0.00177
1790742791.1682591,-0.01527,0.01002,-0.99992,-0.00067,0.0004,0.00312
1790742791.184798,-0.01577,0.00735,-0.99919,0.00228,0.0033,0.00362
1790742791.209053,-0.01549,0.00885,-1.00025,-0.00115,0.00364,-8e-05
1790742791.227214,-0.01831,0.00815,-1.00032,0.00034,0.00267,0.00218
1790742791.243117,-0.01625,0.0099,-1.00009,0.00062,0.00177,0.00114
1790742791.2856882,-0.01533,0.00756,-1.00067,0.0012,0.00395,0.00677
1790742791.3044019,-0.01641,0.0083,-1.0009,-0.0011,0.00076,0.00277
1790742791.3202639,-0.0143,0.01156,-1.00042,0.00407,0.00093,-0.00192
1790742791.345995,-0.01469,0.00659,-0.99946,0.00122,0.00259,0.00373
1790742791.365949,-0.0139,0.00806,-1.00062,0.00102,0.00127,0.00181
1790742791.3857641,-0.01446,0.01057,-1.00113,-0.00105,0.00301,0.00136
1790742791.407088,-0.01535,0.00788,-1.00037,-0.00171,0.003,0.00408
1790742791.42607,-0.01411,0.00844,-1.00043,0.00108,0.00037,0.00061
1790742791.439313,-0.01436,0.01089,-1.00102,0.00159,0.00255,0.00045
1790742791.465127,-0.01542,0.00842,-1.00124,0.00421,0.00364,0.00467
1790742791.4841611,-0.01639,0.00913,-1.00037,0.00065,0.0042,0.0018
1790742791.5064478,-0.01687,0.00963,-0.99968,0.00032,0.00366,-5e-05
1790742791.5266109,-0.01768,0.00926,-1.00002,0.00147,0.00402,0.00268
1790742791.5411541,-0.01786,0.00854,-1.00082,0.00231,0.00171,-0.00131
1790742791.566001,-0.01616,0.00862,-1.00016,0.0015,0.00285,0.00113
1790742791.58522,-0.0166,0.00884,-0.99936,0.00365,0.00345,0.00394
1790742791.608188,-0.01592,0.0107,-1.00104,0.00078,0.00237,-0.0012
1790742791.6261702,-0.01722,0.00808,-1.00199,-0.00078,0.00098,0.00297
1790742791.6457112,-0.0149,0.00941,-1.00079,0.00236,0.00207,0.00216
1790742791.66527,-0.01453,0.00818,-1.00168,0.00482,0.00447,0.00116
1790742791.685571,-0.01252,0.0079,-1.00233,0.00296,0.00336,0.0024
1790742791.70594,-0.01121,0.01114,-1.00022,0.00124,0.00273,-0.00133
1790742791.7278569,-0.01333,0.00808,-0.9985,0.00276,0.00134,0.00236
1790742791.764796,-0.01459,0.00983,-1.00037,0.00335,0.00322,-0.00038
1790742791.783378,-0.01562,0.00861,-1.00275,0.00046,0.00237,0.00201
1790742791.808588,-0.01673,0.00894,-1.00179,0.00102,0.00352,0.00368
1790742791.826101,-0.01781,0.00864,-1.00028,0.00341,0.00474,0.00265
1790742791.838717,-0.0179,0.00957,-0.99911,0.00035,-0.00024,0.00169
1790742791.864862,-0.0172,0.00707,-1.00154,-0.00161,0.00058,0.00275
1790742791.883997,-0.01689,0.00902,-1.0008,0.00175,0.00242,0.00287
1790742791.906969,-0.01719,0.01062,-1.00016,0.00348,0.0034,0.00011
1790742791.926132,-0.01847,0.00757,-1.0,0.00121,0.00224,0.0024
1790742791.940626,-0.01837,0.00783,-0.99941,0.0032,0.00178,0.00228
1790742791.965311,-0.01754,0.00939,-0.99979,0.0007,0.00094,0.00089
1790742791.984491,-0.01658,0.00926,-1.0013,0.00059,0.00016,0.00069
1790742792.006033,-0.01612,0.00861,-1.00124,0.00062,6e-05,0.00035
1790742792.027675,-0.01578,0.00865,-0.99991,0.00073,0.00196,-0.0003
1790742792.0417259,-0.01395,0.00838,-1.00077,0.00239,0.00125,0.00246
1790742792.065541,-0.01388,0.00843,-1.00227,0.00082,2e-05,0.00267
1790742792.085153,-0.01436,0.00954,-1.00074,0.00284,0.00293,0.00106
1790742792.1255941,-0.01286,0.01031,-1.00147,6e-05,0.0015,0.0011
1790742792.141221,-0.01541,0.0076,-1.00053,0.00234,0.00045,0.00295
1790742792.163811,-0.01639,0.00948,-1.00025,0.00041,0.00273,0.00227
1790742792.1852539,-0.01763,0.01036,-1.00084,0.00026,0.00268,0.00049
1790742792.198032,-0.01864,0.00734,-1.00014,0.00125,0.0021,0.00374
1790742792.225675,-0.01701,0.00777,-1.00017,0.00371,0.00288,0.00198
1790742792.24114,-0.01807,0.0096,-1.00143,0.00296,0.0025,0.00172
1790742792.2637599,-0.01802,0.01016,-1.00012,-0.00222,0.00269,0.00186
1790742792.2867799,-0.01686,0.00956,-1.00083,0.00356,0.00045,0.00178
1790742792.308403,-0.01557,0.0094,-0.99905,0.0035,0.00108,0.00298
1790742792.3256462,-0.01392,0.00788,-0.99913,0.00155,0.00212,-0.00063
1790742792.3456151,-0.01328,0.00949,-1.00125,0.00284,0.00179,0.00344
1790742792.370563,-0.01466,0.00882,-1.00097,0.00016,0.00157,0.00227
1790742792.384544,-0.01395,0.00847,-0.99985,0.00059,0.00286,0.00171
1790742792.398328,-0.01524,0.00873,-1.00091,-0.00116,0.00126,0.00174
1790742792.428853,-0.01531,0.00892,-1.0012,0.0033,0.00301,0.00147
1790742792.446729,-0.01505,0.00862,-1.00009,0.00199,0.00208,0.00115
1790742792.465106,-0.0167,0.00953,-0.99975,0.00233,-0.00023,0.00211
1790742792.484431,-0.01833,0.00907,-1.00178,0.00099,0.00079,0.00279
1790742792.502323,-0.01753,0.00956,-1.00235,0.0011,0.00369,0.00257
1790742792.545713,-0.01636,0.01038,-1.00218,0.00054,9e-05,0.00051
1790742792.5646431,-0.01577,0.0084,-1.00058,0.0002,0.00371,0.00234
1790742792.5844119,-0.01465,0.00982,-0.99995,0.00021,0.00297,0.00115
1790742792.605369,-0.0154,0.00954,-1.00081,0.00069,0.00222,0.00172
1790742792.6276019,-0.01542,0.0087,-1.00089,0.00063,0.0025,0.00086
1790742792.6436312,-0.01452,0.01023,-1.00138,0.00189,0.00396,0.00167
1790742792.6635258,-0.01613,0.00933,-1.00054,-0.00064,0.00306,0.00295
1790742792.684973,-0.01421,0.00922,-0.99959,0.00067,-0.00122,0.00111
1790742792.7282171,-0.01487,0.0093,-1.00015,0.0005,0.00119,0.00129
1790742792.738414,-0.01625,0.00779,-1.00088,0.00349,0.00299,0.0026
1790742792.766628,-0.01682,0.00839,-1.00226,0.0022,0.00174,0.00106
1790742792.784836,-0.01688,0.00845,-1.0007,0.00309,0.00285,0.00216
1790742792.807777,-0.01557,0.00961,-0.99908,0.00157,0.00257,-0.00096
1790742792.825929,-0.01654,0.00867,-0.99994,0.00124,0.00165,0.00247
1790742792.867295,-0.0155,0.00789,-1.00055,0.00323,-0.00088,0.00105
1790742792.886014,-0.01433,0.00984,-0.99977,0.00074,0.00028,0.00035
1790742792.926788,-0.0155,0.00753,-1.00021,0.00173,0.00406,0.00047
1790742792.940044,-0.01595,0.00748,-1.0011,0.00224,0.003,0.00274
1790742792.963609,-0.01615,0.00973,-0.9999,0.00166,0.00222,0.00127
1790742792.98676,-0.01548,0.00905,-1.00189,0.00289,0.0032,0.00125
1790742793.00662,-0.0154,0.00916,-1.00182,0.00234,0.00064,0.00246
1790742793.02615,-0.0153,0.01026,-1.00038,0.00251,0.00081,0.00038
1790742793.041718,-0.01442,0.00765,-1.00028,5e-05,0.00156,0.00265
1790742793.0830731,-0.01416,0.00903,-1.00109,0.00252,0.00294,0.00042
1790742793.091594,-0.01646,0.00901,-1.00102,0.0018,0.00234,0.00173
1790742793.125101,-0.01707,0.0086,-0.99908,0.00028,-0.00013,0.00288
1790742793.144747,-0.01599,0.0107,-0.99895,0.00131,0.0007,0.00146
1790742793.163448,-0.01614,0.009,-1.00244,-0.00028,0.0017,0.00129
1790742793.1834931,-0.01663,0.00862,-1.00261,3e-05,0.00264,0.00207
1790742793.1923149,-0.01629,0.00997,-1.00105,0.00259,0.00238,0.00047
1790742793.2254238,-0.01626,0.00973,-1.00106,0.00239,0.00355,0.00263
1790742793.248197,-0.017,0.00791,-1.00075,0.00152,0.002,0.00274
1790742793.265619,-0.01668,0.00912,-1.00043,0.00132,0.00053,0.00054
1790742793.284596,-0.01471,0.00904,-1.00034,0.00484,0.00259,0.00396
1790742793.306324,-0.01594,0.00921,-1.00078,0.00027,0.00283,-0.0001
1790742793.326514,-0.0154,0.00938,-0.99973,0.00104,0.00305,-0.00064
1790742793.345005,-0.01496,0.00822,-0.99975,0.00022,0.00253,0.00188
1790742793.384578,-0.0141,0.00864,-1.00089,0.00066,0.00285,-0.00046
1790742793.4047942,-0.01499,0.00728,-1.00129,0.00137,0.00062,0.00387
1790742793.4251678,-0.01508,0.00955,-1.00182,0.00148,0.00127,-0.00027
1790742793.444696,-0.01596,0.00951,-1.00116,0.00136,0.00262,0.00134
1790742793.465009,-0.01647,0.00768,-1.0002,0.00191,0.00438,0.00264
1790742793.485486,-0.01706,0.0093,-1.00004,0.0011,0.00261,0.00085
1790742793.5021682,-0.01599,0.00944,-0.99993,0.00115,0.00196,0.00241
1790742793.526486,-0.01564,0.00836,-0.99958,0.00076,0.00068,0.00036
1790742793.544953,-0.0155,0.00871,-1.00013,0.00319,0.00271,0.00265
1790742793.568384,-0.01664,0.00927,-0.99967,0.00031,0.00096,0.00283
1790742793.586058,-0.01601,0.00916,-1.00236,-0.00026,0.00348,0.00235
1790742793.625567,-0.01687,0.00916,-1.00226,0.00348,0.00405,0.00092
1790742793.644951,-0.01592,0.01036,-1.00068,0.00166,0.00179,0.00211
1790742793.664868,-0.01567,0.00852,-1.00074,0.00184,0.00344,0.0018
1790742793.686837,-0.01539,0.00831,-1.00164,0.00047,0.0027,0.00039
1790742793.705992,-0.01467,0.00793,-1.00061,-0.00133,0.00198,0.0037
1790742793.7260082,-0.01521,0.00886,-1.00074,0.00145,0.00215,0.00331
1790742793.75365,-0.01571,0.00958,-1.00017,0.00213,0.002,0.00168
1790742793.7648351,-0.01508,0.00798,-1.00057,0.00134,0.00172,0.00304
1790742793.785886,-0.01556,0.00967,-1.0003,0.00081,0.00199,9e-05
1790742793.8052511,-0.0152,0.00772,-1.00023,0.00085,0.00248,0.00403
1790742793.8258922,-0.01531,0.00778,-0.99988,0.00044,0.00379,-0.00052
1790742793.837316,-0.01634,0.00772,-0.99885,0.00077,0.00422,0.00013
1790742793.864753,-0.01625,0.00878,-0.99882,0.00058,0.00424,-0.00075
1790742793.8852758,-0.01638,0.00871,-0.9996,0.00286,0.00276,0.00022
1790742793.8979552,-0.01659,0.00867,-0.99962,0.00189,0.00217,0.00221
1790742793.92818,-0.01571,0.0089,-1.00099,-2e-05,0.0043,0.00117
1790742793.945013,-0.01499,0.00889,-1.00184,0.00051,0.00072,0.00354
1790742793.968384,-0.015,0.0087,-1.0003,0.00504,0.00484,0.00135
1790742793.9865139,-0.01517,0.00846,-1.00102,0.0005,0.00139,0.00062
1790742794.006321,-0.01449,0.01027,-1.0024,0.00214,0.00319,0.00188
1790742794.0297742,-0.0155,0.00835,-1.00004,0.00184,0.00177,0.00486
1790742794.04362,-0.01473,0.00859,-0.99986,0.00075,-0.00059,0.00083
1790742794.064981,-0.01432,0.00921,-1.00012,0.00277,0.00308,0.00154
1790742794.0846431,-0.01569,0.00869,-1.00047,0.00324,0.00239,0.00085
1790742794.102753,-0.01594,0.00811,-1.00102,0.00088,0.00431,0.00105
1790742794.144778,-0.0169,0.00979,-1.00144,0.00208,0.00489,0.00322
1790742794.1516979,-0.01643,0.00869,-1.00203,0.00186,0.00244,0.00236
1790742794.1855822,-0.01625,0.00886,-1.00096,0.0004,-0.00098,0.00196
1790742794.20595,-0.01559,0.00957,-1.00185,0.00103,0.00542,0.00061
1790742794.226214,-0.01534,0.00749,-1.00081,0.00139,0.00327,0.00273
1790742794.251245,-0.01425,0.00898,-1.00218,9e-05,0.00103,0.0004
1790742794.2652469,-0.01564,0.00905,-1.00061,-0.00128,6e-05,0.00236
1790742794.28477,-0.01375,0.00923,-1.00027,0.00061,0.00271,0.00091
1790742794.304904,-0.01539,0.00849,-1.00101,0.00411,0.00243,0.00286
1790742794.3287108,-0.01618,0.00688,-0.99954,0.00021,0.00105,0.00383
1790742794.3452108,-0.01466,0.01144,-0.99903,0.00099,0.00313,0.00025
1790742794.385776,-0.01588,0.00787,-1.00062,0.00246,0.00204,0.00129
1790742794.402913,-0.01585,0.00655,-1.00093,-0.00017,0.00301,0.00243
1790742794.425476,-0.01649,0.01145,-1.00002,0.00161,0.0027,-0.00169
1790742794.444983,-0.01854,0.0085,-1.0,0.00352,0.00149,0.00301
1790742794.4679701,-0.01696,0.00694,-0.99811,0.0033,0.00093,0.00209
1790742794.48475,-0.01505,0.00967,-0.99863,0.00252,0.00161,0.00119
1790742794.503387,-0.01569,0.00921,-0.99899,2e-05,0.00248,0.00199
1790742794.5277162,-0.01532,0.00819,-1.0008,0.0001,0.00231,0.00192
1790742794.546477,-0.01541,0.008,-1.00054,0.00214,0.0029,0.00101
1790742794.5676281,-0.0161,0.0078,-1.00119,0.00276,0.003,0.00412
1790742794.584623,-0.01468,0.00944,-1.00143,0.00195,0.00233,0.0027
1790742794.604453,-0.01459,0.00838,-1.00153,0.00014,0.00373,0.00301
1790742794.6250958,-0.01431,0.01054,-0.99866,0.00204,0.00111,0.00098
1790742794.645695,-0.01483,0.00783,-0.99931,0.00118,0.00213,0.00115
1790742794.656888,-0.01504,0.00764,-1.00147,0.0004,0.00188,0.00265
1790742794.6845,-0.01653,0.00921,-1.00086,-0.00029,0.00386,0.00179
1790742794.7062778,-0.01731,0.01052,-1.00007,0.00358,-0.00017,-0.00033
1790742794.7295098,-0.01884,0.00767,-0.99959,0.00358,0.00433,0.00117
1790742794.7466729,-0.01969,0.00815,-0.99992,0.00039,0.00184,0.00291
1790742794.7671008,-0.01824,0.00788,-1.00126,0.00327,0.00123,0.00094
1790742794.7866418,-0.0167,0.00735,-1.00102,0.00014,0.00166,0.00377
1790742794.806947,-0.01595,0.00949,-1.00178,0.00212,0.00228,0.00056
1790742794.8245142,-0.0141,0.00977,-1.00054,0.00259,0.00288,0.00352
1790742794.845695,-0.01398,0.00852,-1.00174,0.0027,0.00344,0.00292
1790742794.8842082,-0.01267,0.00962,-1.00203,0.00079,0.0035,-0.0001
1790742794.904948,-0.01317,0.00587,-1.00085,6e-05,0.00427,0.00213
1790742794.925835,-0.01176,0.00886,-1.00093,0.0025,0.00269,-4e-05
1790742794.9431272,-0.0134,0.00863,-0.99961,0.0004,0.00482,0.00042
1790742794.969373,-0.01495,0.00792,-1.00083,-0.0003,0.00442,0.00245
1790742794.9847832,-0.01664,0.00798,-1.00009,0.00199,0.0005,0.00218
1790742795.004436,-0.01757,0.00896,-1.00124,0.00362,0.00344,0.00113
1790742795.043963,-0.01803,0.0077,-1.0,0.00323,0.00228,0.00414
1790742795.058583,-0.01653,0.00767,-1.00155,0.00149,0.0009,0.00208
1790742795.0860212,-0.01637,0.00993,-1.00128,2e-05,0.00335,-0.0021
1790742795.103484,-0.01669,0.00705,-1.00108,0.00419,0.00331,0.00323
1790742795.117803,-0.01623,0.00766,-1.0015,0.00185,0.00481,-0.00044
1790742795.145149,-0.01356,0.01012,-1.00078,0.00243,0.00453,-0.00204
1790742795.1678379,-0.01341,0.00698,-1.00035,0.00132,0.00444,0.00376
1790742795.2035468,-0.01454,0.01144,-1.00035,0.00154,0.00343,-0.00135
1790742795.2244968,-0.01604,0.00737,-1.00013,0.00058,0.00435,0.00544
1790742795.246869,-0.01528,0.00939,-1.00063,0.00228,0.00231,0.00023
1790742795.2663949,-0.01464,0.00902,-1.00146,0.00192,0.00356,0.00138
1790742795.2856069,-0.01503,0.00873,-1.00087,0.00096,0.00091,-0.00063
1790742795.304182,-0.01543,0.00772,-1.00105,0.00319,0.00233,1e-05
1790742795.327254,-0.01765,0.00798,-1.00063,0.00108,0.00087,0.00362
1790742795.342011,-0.01671,0.00929,-1.00179,0.00026,0.00138,0.00102
1790742795.367202,-0.01663,0.00881,-0.99988,0.00203,0.00057,0.00125
1790742795.386698,-0.01554,0.00735,-0.99964,0.00261,0.00059,0.00465
1790742795.4056509,-0.01424,0.00812,-1.00218,0.00069,0.00338,-0.00063
1790742795.445337,-0.01573,0.0082,-1.00202,0.00032,0.00302,0.00525
1790742795.457742,-0.016,0.00873,-1.0009,0.00261,0.00227,0.00186
1790742795.4858081,-0.01532,0.00803,-1.00053,0.00127,0.00206,0.00109
1790742795.505698,-0.01495,0.00828,-0.99943,0.00447,0.00305,0.0013
1790742795.526707,-0.0152,0.00926,-1.00013,0.00071,0.00261,0.00265
1790742795.545511,-0.01524,0.00935,-1.00114,0.0017,0.00343,0.00139
1790742795.560369,-0.01522,0.00874,-1.00046,0.00383,0.00258,0.00105
1790742795.584534,-0.01582,0.00947,-1.00067,0.00559,0.00108,0.00013
1790742795.6042712,-0.01578,0.00775,-1.00061,0.00141,0.00179,0.00254
1790742795.618171,-0.01642,0.01004,-1.00119,0.00028,0.00189,0.00177
1790742795.6449301,-0.0166,0.00943,-1.00127,0.00235,0.00275,0.0016
1790742795.6664698,-0.01726,0.00797,-1.0012,0.00302,0.00509,0.00414
1790742795.7077749,-0.01612,0.0084,-1.00082,0.00104,0.00448,0.00011
1790742795.722593,-0.01593,0.00894,-1.00012,-0.00011,0.00181,-2e-05
1790742795.749815,-0.01683,0.00902,-1.00047,0.00011,0.0026,0.00268
1790742795.764842,-0.01656,0.00885,-1.00108,0.00296,0.00289,0.00312
1790742795.7876081,-0.01386,0.0107,-0.99899,0.00125,0.00068,0.00083
1790742795.808874,-0.01496,0.00863,-1.00256,0.00026,0.00125,0.00369
1790742795.8278441,-0.01407,0.00983,-1.00146,0.00255,0.00085,0.00031
1790742795.846488,-0.01468,0.0097,-1.00027,-0.00014,0.00235,0.00013
1790742795.8688698,-0.01572,0.0073,-1.00074,-1e-05,0.00253,0.00312
1790742795.888127,-0.01625,0.00848,-1.00077,-0.00017,0.00333,-0.00155
1790742795.9058602,-0.01582,0.00935,-1.00195,0.00078,0.00265,0.00351
1790742795.926504,-0.01647,0.01022,-1.00066,0.00049,0.00429,0.0019
1790742795.968131,-0.01657,0.00966,-1.0007,0.00195,0.0029,0.00024
1790742795.987839,-0.01457,0.00714,-1.00056,0.00334,0.00194,0.00135
1790742796.0048158,-0.01538,0.00879,-1.00059,0.00062,0.00317,0.00151
1790742796.0281348,-0.01623,0.00845,-0.99983,-0.0001,0.00225,0.00386
1790742796.046077,-0.01574,0.01031,-1.00127,0.00038,0.00085,0.00294
1790742796.087818,-0.01633,0.00808,-1.00183,-0.00055,0.00348,0.00362
1790742796.104573,-0.01548,0.00886,-0.99931,0.00327,0.00249,0.0011
1790742796.1248178,-0.01543,0.00948,-0.99969,0.00154,0.00145,0.00039
1790742796.143518,-0.01739,0.00725,-1.0014,0.00225,0.00493,0.00465
1790742796.164886,-0.01676,0.00772,-1.00145,0.00027,0.00314,0.0015
1790742796.1835039,-0.01468,0.00928,-0.99978,0.00264,0.00022,-0.00066
1790742796.203566,-0.01497,0.00785,-1.00043,0.0043,0.00226,0.00245
1790742796.224043,-0.01465,0.00909,-1.00142,0.00128,0.00403,0.00202
1790742796.254411,-0.0138,0.0081,-1.00245,0.00062,0.00268,0.00112
1790742796.264359,-0.01465,0.0068,-0.99931,0.00069,0.00283,0.00239
1790742796.2865741,-0.0154,0.00841,-0.99807,0.00118,0.00211,0.00199
1790742796.30631,-0.01565,0.00801,-1.00021,-0.00094,0.00271,0.00177
1790742796.32576,-0.01656,0.00936,-1.00021,0.00233,0.00269,0.00263
1790742796.3455548,-0.01688,0.009,-0.99897,0.00123,0.00062,0.00104
1790742796.3634582,-0.0174,0.00904,-1.00086,-0.00234,0.0021,0.0019
1790742796.38642,-0.0181,0.00687,-1.00164,-0.00045,0.00196,0.0035
1790742796.405659,-0.0167,0.00885,-1.00263,0.00257,0.00324,0.00273
1790742796.426133,-0.01788,0.00931,-1.00153,0.00431,0.00448,-0.00105
1790742796.4443688,-0.01654,0.00928,-0.99974,7e-05,0.00324,0.00317
1790742796.466589,-0.01617,0.00889,-0.9998,0.00285,0.00144,0.00064
1790742796.488605,-0.01521,0.00942,-1.0002,0.00518,0.00356,0.00053
1790742796.505494,-0.01436,0.00739,-1.00081,0.00084,0.00498,0.00535
1790742796.525632,-0.01445,0.00881,-0.99975,0.00155,0.00333,0.0009
1790742796.544493,-0.01411,0.01033,-0.99942,0.0009,0.00175,0.00146
1790742796.5672169,-0.01421,0.00928,-0.99993,0.00345,0.00262,0.00198
1790742796.5864441,-0.01499,0.00895,-1.00104,0.00182,0.00327,0.00464
1790742796.613961,-0.01443,0.01047,-1.00225,-0.00084,0.00106,-0.0002
1790742796.644629,-0.01597,0.00704,-0.99988,0.004,0.00263,0.00468
1790742796.665635,-0.01633,0.00933,-1.00276,0.00245,0.00462,-0.00097
1790742796.688753,-0.01577,0.00952,-1.00203,0.00255,-0.00053,-0.00057
1790742796.705717,-0.01665,0.00703,-1.00041,-0.00106,0.00383,0.0033
1790742796.716052,-0.01568,0.00947,-0.99919,-7e-05,0.00231,0.00204
1790742796.750985,-0.01559,0.00966,-1.00065,0.0012,0.00434,-0.00163
1790742796.765934,-0.01718,0.00778,-1.00128,0.0016,0.00029,0.00138
1790742796.784172,-0.01704,0.00992,-0.99906,0.00227,0.00397,-0.00067
1790742796.80481,-0.01668,0.00945,-0.99859,0.00042,0.00484,0.00197
1790742796.845584,-0.016,0.00776,-0.99827,-0.00212,0.00203,0.00048
1790742796.866189,-0.01584,0.00861,-1.00036,-0.00148,-0.00028,0.00048
1790742796.881433,-0.01597,0.00854,-0.99978,0.00042,0.00205,0.00347
1790742796.905327,-0.01476,0.00791,-0.99959,0.002,0.00172,0.00349
1790742796.925216,-0.01366,0.00998,-1.00148,0.00235,0.0,2e-05
1790742796.944751,-0.01528,0.00877,-1.00119,-0.00095,0.00208,0.00299
1790742796.96399,-0.01586,0.00587,-0.99909,0.00157,0.00114,0.00269
1790742796.980413,-0.01447,0.00818,-1.00008,0.00074,0.00292,-0.00068
1790742797.0062,-0.01603,0.00769,-0.99883,0.00207,0.0046,0.00127
1790742797.0263429,-0.01624,0.00751,-1.00033,0.00181,0.0017,0.00251
1790742797.0447922,-0.01597,0.00798,-1.00143,0.00011,0.00124,0.00051
1790742797.065401,-0.01731,0.00835,-1.00142,0.0023,0.00382,0.00096
1790742797.089283,-0.01767,0.00756,-1.00131,-2e-05,0.00362,0.00012
1790742797.107572,-0.01612,0.00756,-1.00123,0.00193,0.0038,0.00015
1790742797.124556,-0.01574,0.00783,-1.00215,0.00343,0.00254,0.0028
1790742797.1448069,-0.01515,0.00904,-1.0016,0.00391,0.00364,0.00128
1790742797.164654,-0.01604,0.00931,-1.001,0.00241,0.00096,0.00201
1790742797.185596,-0.01569,0.00772,-1.00091,-0.00042,0.00274,0.00388
1790742797.205777,-0.01334,0.00922,-1.00086,0.00441,0.00368,0.00029
1790742797.221901,-0.01447,0.00899,-1.00329,3e-05,0.00203,0.00152
1790742797.247763,-0.01568,0.00919,-1.00174,0.00346,0.00264,0.00109
1790742797.2660449,-0.01538,0.00745,-1.00025,-0.00069,0.00252,0.00244
1790742797.278987,-0.01678,0.00737,-0.99906,0.00198,0.00427,0.00099
1790742797.305185,-0.01574,0.01014,-0.99893,0.00106,0.00216,-0.00252
1790742797.3260999,-0.01594,0.00749,-0.99954,0.00098,0.00067,0.00256
1790742797.345314,-0.01726,0.00761,-1.00236,0.00234,0.00262,0.00302
1790742797.365759,-0.01656,0.00912,-1.00254,0.00349,0.00314,0.00216
1790742797.4074721,-0.01662,0.00962,-1.00217,0.00153,0.00173,0.00113
1790742797.42183,-0.01522,0.00729,-1.00187,0.00122,0.00148,0.00241
1790742797.444921,-0.01459,0.00959,-1.00244,0.00299,0.00068,0.00045
1790742797.4654238,-0.01508,0.00716,-1.00161,-0.00012,0.00379,0.00377
1790742797.4850821,-0.01518,0.00733,-1.00204,0.00117,0.00282,0.00187
1790742797.5048409,-0.0147,0.00948,-1.00029,-0.0015,0.00204,0.00066
1790742797.52001,-0.01484,0.00848,-1.00168,0.00435,0.00241,0.00198
1790742797.545621,-0.01642,0.00845,-1.00142,-0.00026,0.00409,0.00268
1790742797.566644,-0.01829,0.00913,-1.00014,0.00089,0.00185,-0.00132
1790742797.5867531,-0.01814,0.00837,-1.00247,0.0013,0.00166,0.00181
1790742797.604471,-0.01756,0.00855,-1.0023,0.00325,0.00138,0.00085
1790742797.6454332,-0.01635,0.0094,-1.00003,0.00215,0.0008,0.00172
1790742797.663371,-0.01493,0.00786,-1.00013,0.00139,0.00177,0.00279
1790742797.678408,-0.0153,0.00762,-1.00062,0.0003,0.00311,0.00132
1790742797.704751,-0.01503,0.00905,-1.00018,0.00134,0.00316,0.00024
1790742797.7246652,-0.01543,0.00856,-0.9986,-0.00176,-0.00023,0.00141
1790742797.7357051,-0.01466,0.00849,-1.00078,0.00347,0.00281,0.00282
1790742797.768794,-0.01455,0.01032,-1.00317,9e-05,0.00335,0.00114
1790742797.804299,-0.01549,0.00786,-1.00193,0.0025,0.00152,0.00094
1790742797.8264031,-0.01524,0.00729,-1.00096,0.0017,0.00082,0.00267
1790742797.8433359,-0.01531,0.00977,-1.00058,0.00248,0.00302,-0.00039
1790742797.8682399,-0.01663,0.0082,-0.99916,0.00186,0.00215,0.00414
1790742797.880317,-0.01691,0.00731,-1.00028,0.00053,0.00342,0.00302
1790742797.905805,-0.01682,0.01041,-0.9997,0.00215,0.00138,0.00053
1790742797.92589,-0.01676,0.00775,-0.9979,0.0031,0.00302,0.00311
1790742797.940174,-0.01628,0.00916,-1.00107,0.00213,0.00391,-0.00014
1790742797.9878132,-0.01608,0.00855,-1.00211,0.00274,0.00372,0.00271
1790742798.006458,-0.01579,0.00733,-1.0007,0.0025,0.0027,0.00165
1790742798.024731,-0.01452,0.00858,-0.99997,0.00568,0.00316,0.00057
1790742798.044512,-0.01416,0.00927,-1.00148,-0.00076,0.00343,0.00225
1790742798.064279,-0.0164,0.00868,-1.00099,0.00088,0.00226,0.00261
1790742798.080341,-0.01665,0.00909,-0.99942,0.00038,0.00066,0.00274
1790742798.1240408,-0.0166,0.00948,-1.00115,0.0032,0.00406,-0.00031
1790742798.132618,-0.01764,0.00775,-1.00213,0.00201,0.00398,0.00294
1790742798.164036,-0.01746,0.00773,-1.00054,0.001,0.00216,0.00237
1790742798.180691,-0.01648,0.00949,-0.99886,0.00044,0.00186,0.00156
1790742798.205526,-0.01688,0.00782,-1.00082,0.00172,0.0049,0.00442
1790742798.224438,-0.0161,0.00796,-1.00145,-0.00072,0.001,0.00142
1790742798.2379992,-0.01515,0.00727,-1.00165,0.00208,-0.00116,0.00291
1790742798.2853708,-0.01491,0.0088,-0.99958,0.00138,0.00178,0.00293
1790742798.304225,-0.01431,0.01002,-1.00093,0.00254,0.00201,4e-05
1790742798.32336,-0.0157,0.00727,-1.00069,0.00282,0.00317,0.00402
1790742798.340327,-0.01585,0.00733,-0.99918,0.00141,0.00302,0.00132
1790742798.365609,-0.01499,0.00934,-0.99978,0.00152,0.00416,-0.00055
1790742798.3878982,-0.01614,0.00621,-1.00082,0.00122,0.00185,0.00244
1790742798.405351,-0.01559,0.00736,-0.99963,0.0003,0.002,0.00284
1790742798.4242449,-0.01529,0.00951,-1.00073,-0.0007,0.00185,0.00205
1790742798.446198,-0.01524,0.00879,-1.00293,0.00163,0.00225,0.00189
1790742798.4651892,-0.01484,0.00896,-1.00275,0.00178,0.00191,-0.00077
1790742798.487772,-0.0171,0.00828,-1.00036,-0.00185,0.0024,0.00376
1790742798.505445,-0.01809,0.00848,-1.00036,0.00059,0.00452,0.00116
1790742798.530607,-0.01723,0.0084,-1.00076,0.00328,0.00272,-0.00061
1790742798.545852,-0.01601,0.00867,-1.00052,0.00253,0.00274,0.00064
1790742798.564654,-0.01609,0.00775,-1.00051,0.00331,0.00257,0.0008
1790742798.587966,-0.0165,0.00866,-1.00154,0.00158,0.00065,0.00089
1790742798.605449,-0.01594,0.00775,-1.00183,0.00277,0.003,0.00224
1790742798.624924,-0.01363,0.00934,-0.99976,0.00257,0.00471,0.00042
1790742798.64482,-0.0132,0.00793,-0.99929,0.00011,0.00118,0.00465
1790742798.665458,-0.01363,0.00765,-1.00071,0.00156,0.00361,0.00263
1790742798.6888251,-0.0147,0.00995,-1.00163,0.0021,0.0023,0.00176
1790742798.705048,-0.01683,0.00752,-1.00114,0.00369,0.0014,0.00141
1790742798.729255,-0.01701,0.00758,-1.00003,0.00158,0.00474,0.00253
1790742798.7643578,-0.01691,0.01001,-1.00122,0.00102,0.00143,0.00047
1790742798.779215,-0.01847,0.00578,-1.00229,0.0015,0.00121,0.00424
1790742798.804134,-0.019,0.00837,-1.0009,0.00298,0.00197,-0.00022
1790742798.82465,-0.01787,0.00854,-0.99813,0.00066,-0.00062,-0.00105
1790742798.842031,-0.01676,0.00725,-0.99901,0.00141,0.00402,0.00438
1790742798.863982,-0.01592,0.00802,-1.00156,0.00361,0.00538,0.00173
1790742798.879908,-0.0154,0.00987,-1.00123,0.00075,0.00051,0.00086
1790742798.908086,-0.01613,0.00809,-0.99954,0.00039,0.00238,0.00525
1790742798.925869,-0.01507,0.00833,-1.00035,0.00196,0.00271,0.00087
1790742798.946094,-0.01417,0.01058,-1.00026,0.00108,0.00196,-0.00072
1790742798.9659111,-0.01483,0.00803,-0.99989,0.00146,0.00398,0.00331
1790742798.980821,-0.01491,0.00842,-1.00141,-0.00027,0.00174,0.00328
1790742799.006834,-0.01527,0.00811,-1.00134,0.00261,-9e-05,0.00224
1790742799.0255842,-0.01621,0.00924,-1.00041,0.0023,0.00334,0.00066
1790742799.035373,-0.01517,0.00903,-1.00197,0.00024,0.00394,0.00286
1790742799.06435,-0.01572,0.00879,-1.00208,0.00153,0.00263,0.00138
1790742799.0843341,-0.01678,0.00945,-1.00087,0.00082,0.00217,0.00171
1790742799.10481,-0.01836,0.00915,-1.00016,0.00069,0.00098,0.00244
1790742799.127985,-0.0182,0.00946,-1.00175,0.0022,0.0039,0.00191
1790742799.1398022,-0.01711,0.00882,-1.00222,-0.0001,0.00254,0.00223
1790742799.163766,-0.0154,0.00842,-1.00209,0.00138,0.00115,0.00248
1790742799.1969721,-0.01558,0.00868,-1.00039,0.00163,0.00433,0.00193
1790742799.22546,-0.01727,0.00783,-0.99952,0.00233,0.00249,0.00164
1790742799.2449799,-0.01642,0.00813,-1.00069,0.00055,0.00292,5e-05
1790742799.268095,-0.0156,0.0083,-1.00103,4e-05,0.0045,0.0025
1790742799.287551,-0.01417,0.00891,-0.99882,0.00022,0.00336,-0.00168
1790742799.3011642,-0.01616,0.00789,-1.00048,0.00175,0.0023,0.00119
1790742799.3278122,-0.01696,0.00784,-1.00207,0.00155,0.0003,0.00172
1790742799.34385,-0.01563,0.00905,-1.00102,-0.0008,0.00338,0.00067
1790742799.363734,-0.01622,0.00843,-0.99972,0.00216,0.00352,0.00328
1790742799.385736,-0.01603,0.00915,-1.00038,0.00219,0.0029,0.00199
1790742799.400321,-0.01616,0.00871,-1.00046,0.00035,0.00451,0.00133
1790742799.426605,-0.01661,0.009,-1.00128,0.00266,0.00279,-0.00079
1790742799.445434,-0.01633,0.00905,-1.0008,-0.00126,0.00235,0.00211
1790742799.468717,-0.01683,0.00971,-1.00219,0.00017,0.00398,0.00141
1790742799.504291,-0.0173,0.00894,-1.00072,0.00234,0.00072,0.00146
1790742799.527725,-0.01703,0.00763,-1.0024,0.00103,0.00096,0.00306
1790742799.5451121,-0.01614,0.00908,-1.00182,0.00243,0.00177,-0.00032
1790742799.565438,-0.01588,0.00843,-1.00037,-0.00037,0.00295,0.00062
1790742799.587014,-0.01538,0.00646,-1.00047,0.00084,0.00096,0.0023
1790742799.601804,-0.01411,0.00772,-1.00182,0.00306,0.00206,0.00145
1790742799.630162,-0.01471,0.00814,-0.99959,0.00135,0.00482,0.00208
1790742799.6458619,-0.01641,0.00782,-1.00159,0.0017,0.00098,0.00235
1790742799.684721,-0.01638,0.00767,-1.00116,0.00123,0.00211,0.00087
1790742799.7050009,-0.01584,0.00896,-1.00167,0.00401,0.00252,0.00153
1790742799.727756,-0.01529,0.00879,-1.00204,-0.0006,8e-05,0.00073
1790742799.738231,-0.01561,0.00779,-1.00197,0.00374,0.00228,0.00022
1790742799.764854,-0.01672,0.00682,-1.00129,0.00221,0.00031,0.00402
1790742799.7840629,-0.01497,0.00934,-1.00115,0.00063,0.00336,0.00019
1790742799.800592,-0.01516,0.00837,-0.99959,0.00246,0.00177,0.00144
1790742799.824626,-0.01556,0.00677,-1.00223,0.00239,0.00397,0.00026
1790742799.845824,-0.01457,0.00815,-1.00154,0.00109,0.00239,0.00147
1790742799.864404,-0.01609,0.0085,-1.00054,0.00024,0.00254,0.00331
1790742799.886837,-0.01732,0.00903,-1.00065,0.00304,0.00012,0.00309
1790742799.90319,-0.01686,0.00788,-1.00037,0.00546,0.00208,0.00247
1790742799.925824,-0.01726,0.00912,-0.99984,0.00063,0.00139,0.00201
1790742799.949756,-0.01633,0.00806,-1.00083,0.00193,0.00408,0.00239
1790742799.985348,-0.01464,0.00736,-1.00161,0.00117,0.00029,0.00163
1790742799.998752,-0.01562,0.00656,-1.00122,0.00141,0.00084,0.0036
1790742800.02865,-0.01678,0.00862,-1.00201,0.00089,0.0055,0.00039
1790742800.0506282,-0.01714,0.0092,-1.00188,0.00188,0.00498,0.00261
1790742800.0653372,-0.01676,0.00811,-0.9996,0.00208,0.00154,0.00264
1790742800.0876212,-0.01571,0.00792,-0.998,0.00272,0.00287,-0.00021
1790742800.105522,-0.01503,0.008,-0.99931,0.00073,0.00244,0.00126
1790742800.129044,-0.01637,0.0089,-1.00028,0.00516,-0.00064,-0.00083
1790742800.144831,-0.01566,0.00846,-1.00163,-0.0004,0.00321,-0.00068
1790742800.1636941,-0.016,0.00596,-1.00175,-0.00032,0.00185,0.00414
1790742800.185822,-0.01411,0.00872,-1.00009,0.00181,0.00297,-0.0024
1790742800.206159,-0.0153,0.00859,-1.00018,-0.00043,3e-05,0.00243
1790742800.227276,-0.01654,0.00804,-1.00234,0.00136,0.00303,0.00348
1790742800.265341,-0.01567,0.00911,-1.00073,0.00218,0.00351,-0.00042
1790742800.2862568,-0.01609,0.00991,-1.0003,0.00018,0.00457,0.00329
1790742800.3060548,-0.0183,0.00802,-1.00101,0.00292,0.00247,0.00193
1790742800.326786,-0.01774,0.00862,-1.0007,0.00088,0.00082,0.00051
1790742800.341446,-0.01703,0.00786,-1.00189,9e-05,0.00111,0.00109
1790742800.362852,-0.01708,0.00701,-1.00176,0.00312,0.00163,0.0019
1790742800.384515,-0.01665,0.00999,-1.00023,0.0009,0.00153,0.00014
1790742800.4027689,-0.01624,0.00769,-1.00166,0.00025,0.00259,0.00151
1790742800.425458,-0.01467,0.01014,-1.00106,-0.00114,0.00241,-0.00026
1790742800.440656,-0.0158,0.00886,-1.00137,0.00209,-0.00107,0.00267
1790742800.465348,-0.01629,0.00844,-1.00165,0.00051,0.00308,-0.00256
1790742800.50034,-0.01573,0.01047,-1.00046,0.0022,0.00393,-0.00177
1790742800.5248902,-0.0169,0.00755,-0.99961,0.00075,9e-05,0.00476
1790742800.546345,-0.01536,0.00874,-1.00067,0.00053,0.00228,0.00139
1790742800.5659049,-0.01608,0.00697,-0.99937,0.00418,0.00457,0.00473
1790742800.5873861,-0.01519,0.00966,-1.00026,0.00229,0.00313,-0.00127
1790742800.600357,-0.01583,0.00909,-1.00186,0.00126,0.00219,0.00115
1790742800.626504,-0.01729,0.00844,-1.00037,0.00069,0.00321,0.00356
1790742800.6865761,-0.01741,0.01048,-1.00043,0.00036,0.00207,-0.00057
1790742800.688569,-0.01837,0.00644,-1.00271,0.00062,0.00536,0.00412
1790742800.697703,-0.01584,0.00922,-1.00225,0.0026,0.00233,-0.00223
1790742800.725662,-0.01655,0.00812,-1.00144,-0.00051,0.00288,0.00199
1790742800.7542,-0.0159,0.00798,-1.00058,0.00147,-5e-05,0.00328
1790742800.785702,-0.01545,0.00936,-1.00158,0.00065,0.00222,-0.00129
1790742800.7978182,-0.01695,0.00625,-1.00089,0.00206,0.00302,0.00374
1790742800.825941,-0.01598,0.00798,-1.00052,-6e-05,0.00099,0.00229
1790742800.8447108,-0.01542,0.01043,-1.00144,-0.00141,0.00108,-0.00049
1790742800.8654,-0.01746,0.00786,-1.00138,0.00259,0.00261,0.00228
1790742800.88489,-0.01758,0.00959,-1.00175,-0.0007,0.00099,0.00141
1790742800.9046059,-0.01709,0.00834,-1.00298,0.00087,0.00207,-5e-05
1790742800.925358,-0.01495,0.00808,-1.00336,0.00131,0.0042,0.00039
1790742800.9462268,-0.01422,0.00827,-1.00186,0.00297,0.00326,-0.00013
1790742800.964019,-0.01358,0.00785,-1.00112,7e-05,0.00269,0.00244
1790742800.9856908,-0.01546,0.00677,-1.00119,0.00192,0.004,-0.00098
1790742801.004607,-0.01603,0.00751,-1.00177,6e-05,0.00437,0.00157
1790742801.047297,-0.01706,0.00819,-1.00098,-0.00023,0.00268,0.00035
1790742801.0642,-0.01757,0.0085,-1.00163,-0.00341,0.00177,0.00083
1790742801.085171,-0.01709,0.0078,-0.99995,0.00029,0.00146,0.00234
1790742801.101898,-0.01606,0.00808,-1.00024,0.00049,0.00303,0.00035
1790742801.127806,-0.01518,0.00862,-1.00175,0.00165,0.0029,0.00203
1790742801.148404,-0.01662,0.00647,-1.00182,-0.00064,0.00309,0.0041
1790742801.165358,-0.01619,0.01027,-1.00219,0.00076,0.00452,-0.00011
1790742801.184484,-0.01512,0.00828,-1.00068,0.00236,0.00176,0.00415
1790742801.206399,-0.01406,0.00719,-1.00005,0.00225,0.00181,0.00049
1790742801.22702,-0.01561,0.01058,-1.0004,0.00211,0.00286,0.00082
1790742801.2516181,-0.01714,0.00751,-1.00044,0.00075,0.00372,0.00035
1790742801.285762,-0.01524,0.00843,-0.99964,0.00044,0.00267,0.00386
1790742801.300353,-0.01608,0.008,-1.00025,0.00055,0.00433,0.00122
1790742801.325504,-0.01646,0.00793,-1.00177,0.00176,0.00144,0.00035
1790742801.3401651,-0.01569,0.00757,-1.00256,0.00363,0.0044,0.00101
1790742801.3607638,-0.01569,0.00743,-1.00113,8e-05,0.00061,0.0004
1790742801.385468,-0.01659,0.00815,-1.00041,0.00189,0.00143,0.00033
1790742801.4052632,-0.01735,0.00607,-1.00161,0.00149,0.00312,0.00445
1790742801.429214,-0.01568,0.00937,-0.99965,-0.00017,0.00174,-0.00061
1790742801.4451892,-0.01674,0.00737,-0.99942,0.00154,0.00058,0.00247
1790742801.4846091,-0.01623,0.00957,-1.0004,0.0014,0.00157,0.00048
1790742801.5032132,-0.01539,0.00929,-1.00199,0.00179,0.00213,0.00249
1790742801.5247118,-0.01583,0.00793,-1.00197,0.00064,0.0002,0.00215
1790742801.5500128,-0.01504,0.00844,-0.99982,0.00235,0.00332,-0.00046
1790742801.5650098,-0.01641,0.00895,-1.00022,0.00392,0.00107,0.0023
1790742801.5850508,-0.01807,0.00777,-1.00063,0.00098,0.00481,0.00014
1790742801.605128,-0.01756,0.00785,-1.00098,0.00334,0.00249,0.00208
1790742801.624044,-0.01767,0.00751,-1.00025,-9e-05,0.00383,-0.00149
1790742801.6454349,-0.01838,0.00875,-1.00002,0.00346,0.00324,0.00108
1790742801.661289,-0.01743,0.00803,-1.00038,0.00291,0.003,0.00489
1790742801.685817,-0.01492,0.00967,-1.00063,0.00171,0.00233,8e-05
1790742801.704171,-0.01518,0.00777,-1.00032,0.00035,0.00164,0.0044
1790742801.723892,-0.01315,0.00901,-1.00053,0.00028,0.00234,0.00025
1790742801.754264,-0.01539,0.00808,-1.00069,0.00346,0.00081,1e-05
1790742801.786068,-0.01562,0.00651,-1.00116,0.00083,-0.00026,0.00476
1790742801.7998972,-0.01562,0.00921,-0.99999,0.00264,0.00299,0.00042
1790742801.824047,-0.01756,0.0077,-1.00141,-0.00075,0.00389,0.00262
1790742801.846154,-0.01836,0.00791,-1.00088,0.00115,0.00351,0.00311
1790742801.8594072,-0.01853,0.00884,-0.99924,0.00134,0.00312,0.00021
1790742801.901154,-0.01843,0.0089,-0.99901,0.00428,0.00246,0.00104
1790742801.924469,-0.01708,0.00854,-1.0004,0.0011,0.00356,0.00115
1790742801.9492018,-0.01439,0.00938,-0.99929,0.00042,0.00337,0.00171
1790742801.983582,-0.01473,0.00898,-0.99978,-0.0003,0.0016,0.00083
1790742802.005719,-0.01409,0.00898,-0.9995,0.00231,0.00144,0.00243
1790742802.024679,-0.01401,0.00988,-0.99993,0.00155,0.0032,0.00017
1790742802.044754,-0.01614,0.00739,-1.00012,0.00116,0.00627,0.00056
1790742802.060833,-0.01658,0.00692,-1.00073,0.0031,-0.0003,0.00261
1790742802.087893,-0.01557,0.0082,-0.99913,-0.0006,0.00213,0.00375
1790742802.1049442,-0.05951,-0.10795,-1.00158,-0.00172,-0.00124,0.32913
1790742802.123606,-0.07745,-0.14026,-1.00593,-0.00661,-0.01917,0.562
1790742802.145775,-0.01747,0.00247,-0.99676,0.00318,0.0215,0.52182
1790742802.165473,0.02331,0.063,-0.99776,0.01822,-0.00255,0.41822
1790742802.184866,-0.01773,0.00169,-1.0032,0.01174,-0.01388,0.37383
1790742802.2036622,-0.02483,-0.03724,-0.99976,0.00227,-0.00265,0.45207
1790742802.246034,-0.00904,-0.01788,-0.99951,-0.01625,0.00914,0.44811
1790742802.2605708,-0.00477,-0.0161,-1.00075,-0.01543,0.00517,0.47199
1790742802.289821,-0.01043,-0.00988,-1.00787,-0.00273,-0.00566,0.47033
1790742802.304672,-0.01071,0.01303,-1.0034,-0.00898,-0.00893,0.46901
1790742802.3247318,-0.01866,0.00837,-0.99762,-0.00872,-0.00087,0.49578
1790742802.346692,-0.02304,0.01528,-0.99812,0.00306,-0.00611,0.49394
1790742802.36754,-0.02612,0.03178,-1.0037,-0.00835,-0.01345,0.48867
1790742802.402678,-0.03226,0.02568,-0.99941,-0.00128,-0.00436,0.49337
1790742802.425248,-0.03128,0.02859,-0.99852,0.01207,-0.00386,0.47501
1790742802.4466329,-0.03363,0.03079,-0.99529,0.02912,-0.00116,0.42642
1790742802.463916,-0.0455,0.01275,-0.99683,0.03371,0.01294,0.43227
1790742802.4821062,-0.01511,-0.00618,-1.01017,-0.01151,-0.00827,0.51469
1790742802.5032792,-0.00014,-0.00635,-0.99973,-0.00596,-0.00521,0.55542
1790742802.5236712,0.00632,0.0066,-0.99968,-0.01207,-0.01173,0.54902
1790742802.547255,0.00736,0.00684,-0.9982,-0.0081,-0.00699,0.55396
1790742802.5652401,0.01313,0.02262,-1.00002,-0.00748,-0.00897,0.50267
1790742802.604783,0.01326,0.0305,-1.00115,0.00153,-0.01144,0.48864
1790742802.625539,-0.00027,0.01869,-1.00309,-0.00213,-0.01619,0.48902
1790742802.645092,-0.01537,-0.00095,-0.99864,0.00158,-0.011,0.53678
1790742802.665579,-0.03332,-0.00592,-0.99536,0.00064,-0.00286,0.56785
1790742802.686101,-0.0138,0.01264,-0.99056,0.01044,0.01314,0.51582
1790742802.7046242,0.03804,0.14498,-1.00089,0.00523,-0.02371,0.11948
1790742802.7237902,0.04192,0.18552,-1.0022,-0.00057,-0.01108,-0.10249
1790742802.746167,-0.05178,-0.02944,-1.00067,0.00889,0.00855,0.07379
1790742802.7669802,-0.03531,-0.00178,-1.00112,0.00137,0.00856,0.00597
1790742802.787097,-0.01273,0.03118,-0.99782,0.00766,0.00567,0.0129
1790742802.804687,-0.02686,-0.01909,-1.00233,0.00583,0.00588,0.0487
1790742802.826849,-0.02811,-0.01601,-1.00189,0.00504,0.0052,0.07348
1790742802.8460732,-0.02677,-0.00156,-1.00201,0.00525,0.0017,0.08639
1790742802.860727,-0.01712,0.03451,-0.99943,0.00534,0.00046,0.00657
1790742802.885708,-0.01712,0.03451,-0.99943,0.00534,0.00046,0.00657
1790742802.9047868,-0.02991,0.00858,-0.9999,0.00567,0.00284,0.03148
1790742802.9248269,-0.01571,0.02353,-0.99874,-0.00027,0.00824,-0.02606
1790742802.949583,-0.02543,-0.01021,-1.00352,0.00182,0.00546,0.03362
1790742802.9618628,-0.0209,0.00318,-1.00002,0.00294,0.00208,-0.00106
1790742802.9853098,-0.01156,0.03356,-1.00054,-0.00409,0.01002,0.00541
1790742803.0076952,-0.01618,-0.0075,-1.0014,0.0099,0.0024,0.0443
1790742803.024727,-0.00479,0.02161,-1.00016,-0.00103,0.00344,-0.02171
1790742803.06285,-0.01109,0.01146,-1.00129,0.00406,0.00456,0.03284
1790742803.088253,-0.01563,-0.0046,-1.00111,0.00192,0.00286,0.01546
1790742803.1046689,0.01141,0.06819,-0.99985,-0.00195,0.01382,-0.12142
1790742803.1254,0.09039,0.26217,-1.00922,-0.01156,-0.02243,-0.7119
1790742803.145827,0.10423,0.30802,-1.00388,-0.01681,0.01035,-1.20297
1790742803.15984,0.02696,0.0691,-0.96301,0.01573,0.05434,-1.17063
1790742803.187308,-0.02094,-0.07472,-1.00327,0.04841,0.0301,-1.05396
1790742803.204685,-0.02562,-0.04615,-1.00921,0.01745,-0.0147,-0.94422
1790742803.237327,-0.01301,0.00367,-0.99196,-0.02248,0.03793,-0.90534
1790742803.2533,-0.01767,0.00581,-1.01825,-0.03995,-0.01657,-0.89132
1790742803.2656178,-0.03162,-0.00844,-1.03083,-0.01938,-0.02331,-0.87874
1790742803.285454,0.00052,0.05991,-0.97424,-0.00265,0.0535,-0.97042
1790742803.303753,0.02831,0.0759,-0.99292,0.01475,0.02167,-1.08541
1790742803.32668,-0.00394,0.00278,-1.00611,0.01301,0.00726,-1.02825
1790742803.351825,-0.01724,-0.0117,-0.99823,0.00097,0.02913,-0.9054
1790742803.36184,-0.02432,-0.01721,-1.02294,-0.01145,-0.01439,-0.85078
1790742803.384649,-0.05223,-0.04635,-1.0014,0.00486,0.00753,-0.74508
1790742803.405478,-0.01668,0.00951,-0.99642,0.00898,0.02921,-0.79367
1790742803.4245021,0.01189,0.04868,-1.005,0.01867,-0.0046,-0.93656
1790742803.4646778,-0.0212,-0.04561,-0.99642,0.0042,-0.00959,-0.83149
1790742803.485792,-0.04318,-0.13095,-0.99075,-0.0108,0.01426,-0.61216
1790742803.5043252,-0.07256,-0.18196,-1.00277,0.00151,-0.00029,-0.27573
1790742803.5191638,-0.04431,-0.08785,-1.0054,-0.00285,0.01839,-0.17402
1790742803.544662,-0.02434,-0.06534,-1.00079,-0.00383,0.00638,-0.03772
1790742803.562711,0.0147,0.02473,-1.00096,0.00012,-0.00263,-0.1386
1790742803.5909388,0.01931,0.05327,-1.00208,-0.00671,0.00406,-0.19579
1790742803.605241,-0.03094,-0.00833,-1.00038,0.00154,0.00361,-0.12981
1790742803.625707,-0.04484,-0.01115,-0.99891,-0.00335,0.00485,-0.10328
1790742803.646528,-0.03492,0.03671,-1.00067,-0.00478,0.00293,-0.14012
1790742803.662067,-0.03634,0.03512,-1.00165,-0.00427,-0.00095,-0.13659
1790742803.688142,-0.05094,-0.00345,-1.0003,-0.00519,0.00658,-0.09929
1790742803.705496,-0.03127,-0.01157,-1.00227,0.00255,0.0053,-0.05167
1790742803.725892,-0.02936,-0.04308,-1.00097,0.002,-0.0035,0.03673
1790742803.749634,-0.00284,0.00842,-1.00166,-0.00055,-0.00235,-0.00552
1790742803.7884312,-0.00203,0.01982,-1.00036,-0.00102,-0.00159,0.01188
1790742803.8046799,-0.0061,0.00217,-1.00104,0.00144,0.00396,0.00631
1790742803.8290539,-0.00107,0.01219,-1.00078,-0.00152,0.00303,-0.00102
1790742803.844349,-0.00256,-0.00292,-0.99931,0.0043,0.00184,0.02424
1790742803.863661,-0.00767,-0.01337,-1.00075,-0.00063,0.00363,0.0595
1790742803.885859,-0.00552,-0.0207,-1.00086,-0.00057,0.00263,0.07692
1790742803.903587,-0.0061,-0.01624,-1.00157,-0.00153,0.00241,0.08982
1790742803.9239628,-0.01019,-0.01019,-1.00161,-0.00114,0.00067,0.10111
1790742803.949018,-0.01083,-0.00311,-1.00216,-3e-05,0.00295,0.10824
1790742803.964863,-0.01385,0.01034,-1.00017,0.00572,0.00111,0.10506
1790742803.98424,-0.01788,0.02814,-0.99834,0.00209,0.00168,0.10165
1790742804.006115,-0.01272,0.04378,-0.99944,0.00429,-0.00646,0.04918
1790742804.0255208,-0.00885,0.06674,-0.99886,-0.00116,0.00155,-0.01423
1790742804.0512671,-0.03522,-0.01068,-1.00048,0.00448,0.00308,0.0657
1790742804.0679412,-0.03748,-0.0319,-1.00259,0.00377,-0.00065,0.12055
1790742804.08479,-0.02676,-0.00887,-1.00268,0.00407,-0.00096,0.15762
1790742804.104213,-0.0122,0.00461,-0.99957,0.00574,-0.00422,0.15256
1790742804.126487,0.00976,0.05811,-0.9992,0.00336,0.00093,0.02308
1790742804.165107,-0.03027,-0.04855,-1.00301,0.00484,0.00051,0.12083
1790742804.17898,-0.02109,-0.03493,-1.00172,0.00392,0.00866,0.15177
1790742804.2049391,0.01451,0.0429,-0.99862,-0.00125,0.00209,0.08111
1790742804.219209,0.01016,0.03177,-0.99907,-0.0005,0.00284,0.08047
1790742804.247742,-0.01206,-0.01195,-1.00078,-0.00275,0.00046,0.13437
1790742804.265853,0.01428,0.01564,-0.99974,-0.00338,0.00342,0.12072
1790742804.279955,0.00565,0.00789,-1.00193,-0.00207,0.00125,0.11025
1790742804.3057978,-0.01532,-0.00721,-1.00061,-0.00129,0.00252,0.13035
1790742804.3255959,-0.01532,-0.00721,-1.00061,-0.00129,0.00252,0.13035
1790742804.346188,-0.01184,0.03147,-1.00044,-0.00566,0.00174,0.03803
1790742804.36363,-0.0402,0.00315,-1.00174,-0.00472,0.00627,0.08515
1790742804.380339,-0.04929,-0.02242,-1.00001,-0.00212,0.00297,0.1116
1790742804.405792,-0.04902,-0.01345,-1.00059,-0.00022,0.00279,0.12849
1790742804.425712,-0.04902,-0.01345,-1.00059,-0.00022,0.00279,0.12849
1790742804.44725,-0.01451,0.03002,-1.00202,-0.00466,0.00111,0.06892
1790742804.4651258,-0.0232,0.02907,-1.00166,-0.00146,0.00431,0.08966
1790742804.480185,-0.02275,0.01399,-0.99973,-0.00187,0.00763,0.07729
1790742804.50547,-0.006,0.04422,-1.004,-0.00227,0.00054,0.01805
1790742804.519867,-0.01737,0.02461,-1.0013,-0.00182,0.00384,0.04584
1790742804.547816,-0.0256,-0.01458,-1.00022,0.0033,0.00494,0.07729
1790742804.574573,-0.01731,0.00168,-1.00007,-0.00276,0.00513,0.0807
1790742804.6030788,-0.01772,-0.00256,-1.00019,-0.0012,0.00359,0.1046
1790742804.621137,-0.01205,0.00603,-1.00116,0.00143,-0.004,0.07972
1790742804.6458821,0.00724,0.05569,-1.00265,2e-05,0.00461,-0.00792
1790742804.664603,-0.016,0.01394,-1.00201,0.0007,0.00251,0.05425
1790742804.685788,-0.02595,-0.02154,-1.00162,0.00384,0.00166,0.09084
1790742804.7051551,-0.01778,8e-05,-1.00183,-0.00099,0.00138,0.09807
1790742804.72257,-0.02111,-0.00183,-1.00017,0.00238,0.00087,0.11886
1790742804.7462301,-0.00978,0.02409,-1.00037,-0.00121,0.00159,0.0535
1790742804.765252,0.00904,0.06455,-1.00134,-0.00408,0.00162,-0.03605
1790742804.7863,-0.02059,0.00078,-1.00059,0.00295,0.00457,0.04754
1790742804.80566,-0.01417,0.01514,-0.99986,-0.00123,-0.00255,-0.02054
1790742804.825322,-0.01209,0.01054,-1.00077,-0.00214,0.00328,0.00488
1790742804.844173,-0.02508,-0.01595,-0.99987,-0.00056,0.00713,0.02446
1790742804.86373,-0.00813,0.03385,-1.00041,0.00081,-0.00037,-0.02414
1790742804.885417,-0.02095,-6e-05,-1.00226,0.00158,0.00352,0.0327
1790742804.9046972,-0.01559,0.00499,-1.00263,-0.00035,0.00235,-0.01178
1790742804.92617,-0.01193,0.02249,-0.99975,9e-05,0.00117,-0.00409
1790742804.9447522,-0.02503,-0.01229,-0.99986,0.0031,0.00609,0.02512
1790742804.963242,-0.00819,0.02643,-0.99976,0.0005,0.00231,-0.02306
1790742804.984864,-0.01854,0.00073,-1.00116,0.00265,-0.00107,0.02745
1790742805.006185,-0.01542,0.00405,-1.00081,0.00209,0.00377,-0.00102
1790742805.025506,-0.01165,0.02433,-1.00144,-0.00033,0.00181,-0.01203
1790742805.047511,-0.02679,-0.00856,-1.00117,7e-05,0.0058,0.02689
1790742805.064228,-0.01164,0.02066,-1.00149,0.00036,0.00443,-0.01918
1790742805.0864651,-0.01963,0.00493,-1.00022,0.00153,0.00196,0.02162
1790742805.1037471,-0.01749,0.00256,-0.99961,0.00244,0.00239,-0.00046
1790742805.1236129,-0.01273,0.02113,-1.00046,-0.0013,0.00349,-0.00861
1790742805.1486778,-0.0262,-0.00464,-1.00081,0.00267,0.00317,0.02435
1790742805.165131,-0.01341,0.01597,-1.00163,-0.00057,0.0026,-0.0181
1790742805.1857889,-0.02111,0.00089,-0.99936,-0.00233,0.0037,0.0063
1790742805.20701,-0.01256,0.02184,-1.00144,-0.0033,0.00272,-0.01246
1790742805.248342,-0.02379,-0.00289,-1.00045,0.00184,0.00499,0.02825
1790742805.264766,-0.01369,0.01325,-0.99972,-0.00179,0.00309,-0.01217
1790742805.281821,-0.02222,-0.00402,-1.00087,0.00267,0.00185,0.01677
1790742805.325365,-0.01009,0.02077,-1.00169,-0.00255,0.00291,-0.0169
1790742805.3451269,-0.02149,-0.00081,-1.00005,0.00347,0.00572,0.03104
1790742805.368652,-0.02856,-0.01081,-1.00002,-0.00647,0.00523,0.04342
1790742805.38129,-0.02556,0.01144,-1.00078,-0.00027,0.00638,0.02744
1790742805.40688,-0.02161,0.01506,-1.00317,0.0022,-0.00223,0.01463
1790742805.425332,-0.00457,0.03653,-1.0029,-0.00161,0.00101,-0.01988
1790742805.447697,-0.01042,0.00082,-1.00054,0.00492,0.00403,0.01949
1790742805.4690921,-0.0125,0.01119,-0.99945,0.00246,0.00346,0.00271
1790742805.506608,-0.01834,0.00771,-1.00139,0.00113,0.00122,0.00559
1790742805.525151,-0.01301,0.01305,-0.9998,-0.00052,-0.0003,-0.00883
1790742805.546171,-0.01964,0.00203,-0.99893,0.00378,0.00381,0.01643
1790742805.564688,-0.01537,0.01125,-0.99893,0.00057,-0.00025,-0.00995
1790742805.5854578,-0.01647,0.01457,-1.00118,0.00089,0.00257,0.00135
1790742805.606706,-0.02106,-0.00065,-1.00151,0.00204,0.0021,0.0109
1790742805.623578,-0.01414,0.01918,-1.00074,0.00172,0.00354,-0.01397
1790742805.6451101,-0.02098,0.00475,-1.00091,0.00344,0.00379,0.01613
1790742805.661414,-0.01735,0.0072,-1.00037,-0.00053,0.00173,-0.00607
1790742805.683939,-0.01564,0.01406,-1.00113,0.00085,0.00091,-0.00172
1790742805.705912,-0.01946,0.00087,-1.00177,0.00084,0.00589,0.00845
1790742805.725847,-0.01921,0.00691,-1.0003,-0.00158,0.00483,0.01079
1790742805.751164,-0.01778,0.00523,-1.00162,0.00094,0.00368,-0.00582
1790742805.778956,-0.01578,0.01325,-1.00116,0.00251,0.00159,0.00285
1790742805.8089669,-0.01785,0.00245,-1.00084,0.0051,0.00368,0.0077
1790742805.8234282,-0.0137,0.01997,-0.99984,-0.0011,0.00368,-0.01208
1790742805.844007,-0.01788,0.00362,-1.00242,0.00433,0.00459,0.01165
1790742805.865057,-0.01881,0.007,-1.00269,0.0006,0.00241,0.00319
1790742805.883677,-0.01269,0.01673,-0.99924,-0.00284,0.00237,-0.00643
1790742805.909777,-0.01627,0.00968,-0.9993,-0.00025,0.00522,-0.01032
1790742805.9257011,-0.02403,-0.00581,-1.00172,0.00312,0.00581,0.0019
1790742805.9492989,-0.02814,0.00635,-1.00098,0.00489,-0.00311,0.04938
1790742805.965397,-0.00772,0.02792,-0.99914,-0.00161,-0.00278,-0.01776
1790742805.9796832,-0.00781,-0.00037,-1.00314,0.00206,0.00624,0.01063
1790742806.009622,-0.01288,0.00577,-1.00197,-0.00138,0.0044,-0.02705
1790742806.024298,-0.01358,0.0113,-1.00032,0.00315,0.00732,0.00808
1790742806.0488691,-0.02675,0.00426,-1.0016,-6e-05,0.00172,0.02026
1790742806.0642629,-0.01601,0.01291,-1.00251,0.00446,-0.00106,0.00169
1790742806.080548,-0.00073,0.01409,-1.00045,-0.0024,0.01022,-0.00156
1790742806.106417,-0.01929,0.00092,-1.00197,-0.0005,-0.00188,0.00566
1790742806.124676,-0.01695,0.00826,-1.00037,0.00374,0.00885,-0.0017
1790742806.14869,-0.01748,0.0172,-0.99799,0.00303,0.00376,0.00069
1790742806.163679,-0.021,0.00321,-0.99778,0.0035,0.0066,0.00615
1790742806.188521,-0.01974,0.00988,-0.99998,0.00058,5e-05,-0.00293
1790742806.205502,-0.01862,0.00781,-0.99954,0.00109,0.00237,0.00373
1790742806.22448,-0.01819,0.00892,-1.00056,0.00423,0.00155,0.00295
1790742806.255112,-0.01673,0.00971,-1.00078,0.00251,0.00083,-0.00164
1790742806.2645109,-0.0188,0.00801,-1.00064,0.0027,0.00169,0.00342
1790742806.287455,-0.01473,0.01195,-1.00145,0.00129,0.00269,-0.0018
1790742806.3244631,-0.01855,0.00369,-1.00153,0.00048,0.00309,0.00547
1790742806.352038,-0.01425,0.01079,-1.00009,0.00266,0.00618,-0.00052
1790742806.36716,-0.01771,0.00886,-1.00186,0.00281,0.00038,0.00279
1790742806.406591,-0.01469,0.00946,-1.0009,0.00156,0.00634,0.00197
1790742806.4253252,-0.01545,0.00975,-1.00063,0.00179,0.0053,0.00116
1790742806.448152,-0.01698,0.00663,-1.002,0.00102,-0.00051,-0.00058
1790742806.466275,-0.01752,0.0096,-0.99938,0.00177,0.00323,0.00266
1790742806.48577,-0.01816,0.00998,-0.9994,0.00234,0.00302,0.00155
1790742806.5056682,-0.01819,0.00641,-1.00055,-0.0001,0.00214,0.00262
1790742806.529087,-0.01576,0.01094,-1.00029,0.00102,0.00402,0.00236
1790742806.5486379,-0.01624,0.00744,-1.0018,-0.00029,-0.00016,-0.00141
1790742806.564403,-0.01322,0.00883,-0.99915,-0.00188,0.00528,0.00108
1790742806.586178,-0.01322,0.00883,-0.99915,-0.00188,0.00528,0.00108
1790742806.604665,-0.01521,0.0085,-1.00206,0.00221,0.00615,0.00039
1790742806.6258821,-0.01597,0.00837,-1.0023,0.00442,0.00282,0.0004
1790742806.648414,-0.01759,0.00896,-1.00185,0.00031,0.00394,0.00453
1790742806.663857,-0.01632,0.00936,-1.00042,0.00113,0.00243,0.00141
1790742806.686867,-0.01581,0.00932,-1.00019,0.00098,0.00575,-0.00016
1790742806.704535,-0.01624,0.00689,-1.00164,0.00143,0.00172,0.00527
1790742806.719597,-0.01622,0.01071,-1.00194,0.00024,0.00269,0.0017
1790742806.752094,-0.01622,0.01071,-1.00194,0.00024,0.00269,0.0017
1790742806.765216,-0.01753,0.00661,-1.00154,0.00301,0.00417,0.0026
1790742806.8082392,-0.01776,0.00945,-1.00173,0.00321,0.00334,0.00358
1790742806.824791,-0.01751,0.00938,-1.00249,0.00168,0.00215,-0.00127
1790742806.838018,-0.01776,0.00854,-1.00074,0.00094,0.00328,0.00078
1790742806.863764,-0.01683,0.00789,-1.00018,0.00127,0.00214,0.00199
1790742806.886681,-0.01657,0.00743,-1.00176,-0.00102,0.00179,0.00238
1790742806.906642,-0.01722,0.00871,-1.0001,0.00131,0.00046,0.00115
1790742806.926409,-0.0177,0.00739,-1.00162,0.00232,0.00252,-0.00024
1790742806.938067,-0.01624,0.01038,-1.00323,0.00069,0.00327,0.00213
1790742806.964364,-0.01544,0.00736,-1.00281,0.00191,0.00443,0.00247
1790742806.9842088,-0.01713,0.00868,-1.00222,0.00234,0.00081,0.00114
1790742806.9936152,-0.01839,0.00949,-1.002,0.00313,0.00259,0.00165
1790742807.024234,-0.01619,0.01029,-1.00148,0.00151,0.00162,0.00187
1790742807.047861,-0.01569,0.0077,-1.00133,0.00112,0.00295,0.0024
1790742807.065461,-0.01555,0.00825,-1.00138,0.00303,0.00339,0.00231
1790742807.084361,-0.0164,0.00883,-1.00212,-0.00167,0.00167,0.00039
1790742807.0980842,-0.01559,0.01003,-1.00067,0.00101,0.00303,0.00079
1790742807.1253288,-0.0169,0.00755,-1.00159,8e-05,0.00477,0.00184
1790742807.147393,-0.01542,0.00857,-1.00209,-4e-05,0.00586,0.00653
1790742807.1687732,-0.01451,0.01055,-1.00142,0.00037,0.0018,-3e-05
1790742807.191972,-0.01575,0.00939,-1.00095,0.00356,0.00103,3e-05
1790742807.2025821,-0.01561,0.00732,-1.00235,0.00125,0.00179,0.00241
1790742807.22523,-0.01505,0.01059,-1.00111,0.00052,0.00378,-0.00153
1790742807.2681558,-0.01629,0.00697,-1.00061,0.00129,0.00387,0.00273
1790742807.286119,-0.01746,0.00892,-1.00118,0.00185,0.00321,0.00252
1790742807.304929,-0.01774,0.0089,-1.00101,0.00087,0.00212,-0.00057
1790742807.3255181,-0.01791,0.00839,-1.00172,5e-05,0.005,0.0023
1790742807.349028,-0.01813,0.00822,-1.00041,0.00138,0.00424,0.00023
1790742807.365961,-0.01635,0.00993,-1.00219,0.00094,0.00215,-0.0011
1790742807.38548,-0.01705,0.00653,-1.00094,3e-05,0.00409,0.00331
1790742807.407927,-0.0161,0.01014,-1.00026,0.00384,0.00222,0.00189
1790742807.426757,-0.01553,0.00906,-1.00161,0.00122,0.00361,0.00293
1790742807.44805,-0.01589,0.00664,-1.00165,0.00196,0.0016,0.00383
1790742807.4654698,-0.01408,0.00943,-1.00165,0.00167,0.00063,0.00116
1790742807.509633,-0.0149,0.00983,-1.00012,-0.00151,0.00301,-2e-05
1790742807.525433,-0.01592,0.0087,-1.0005,-0.00037,0.00142,0.0017
1790742807.5510652,-0.01572,0.00847,-1.00012,0.00094,0.00284,0.00327
1790742807.564767,-0.01599,0.01014,-0.99967,0.00173,0.00016,0.00319
1790742807.5857458,-0.01868,0.00918,-1.00065,0.00066,0.00271,0.00381
1790742807.605212,-0.01929,0.00895,-0.99972,0.00291,0.00267,-0.00129
1790742807.625184,-0.01766,0.00975,-0.99998,0.00104,0.00025,0.00228
1790742807.6485782,-0.01728,0.00799,-1.00104,0.00039,0.00411,0.0031
1790742807.664313,-0.01678,0.00863,-1.00209,0.00334,0.00193,0.00376
1790742807.6851149,-0.0156,0.00638,-1.00105,0.00272,0.00017,0.00217
1790742807.705914,-0.01454,0.0117,-1.00156,0.0014,-0.00039,0.00089
1790742807.72613,-0.01452,0.00905,-1.00214,-0.00067,0.0016,0.00133
1790742807.750056,-0.0156,0.00706,-1.00069,0.00191,0.00286,0.001
1790742807.764043,-0.01635,0.00825,-1.00056,0.00015,0.00208,0.00191
1790742807.7854521,-0.01523,0.0086,-1.00036,0.00284,0.00013,0.00216
1790742807.825824,-0.01649,0.0087,-1.00058,5e-05,0.0032,0.00192
1790742807.8437061,-0.01722,0.00935,-1.00104,0.00156,0.00092,0.00336
1790742807.8634722,-0.01797,0.01063,-1.00134,0.00148,0.00102,0.0004
1790742807.883969,-0.01675,0.00659,-1.00114,0.00161,0.00347,0.00144
1790742807.895474,-0.01648,0.00882,-1.00184,0.00056,0.00301,0.00046
1790742807.925339,-0.01692,0.00716,-1.00253,0.00323,0.00272,0.00493
1790742807.945434,-0.01465,0.01137,-1.002,0.00078,0.00354,-0.00083
1790742807.9637508,-0.01538,0.00601,-1.00064,0.00211,0.00237,0.00525
1790742807.9799411,-0.01259,0.01039,-0.99973,-0.001,0.00682,0.00203
1790742807.998476,-0.01767,0.00565,-1.00146,0.00135,0.00751,0.00387
1790742808.027841,-0.00945,0.00017,-1.00022,0.00231,-0.00324,0.02195
1790742808.0441449,0.00626,0.02497,-0.99882,-0.00323,-0.00556,0.00441
1790742808.064238,-0.01904,-0.00377,-1.00551,-0.00165,-0.00389,0.00556
1790742808.0861251,-0.01635,-0.0001,-0.99977,0.00111,0.00224,0.01128
1790742808.10496,-0.01862,0.03823,-0.99956,0.00315,0.0003,-0.02838
1790742808.123275,-0.0366,-0.00579,-1.00172,0.00465,0.01797,0.00866
1790742808.144209,-0.05507,0.00361,-1.00276,-0.00019,0.01108,0.00731
1790742808.163894,-0.02326,0.01621,-0.99998,-0.0027,-0.02097,-0.00047
1790742808.1854122,-0.046,0.00466,-1.00474,0.00299,0.01042,0.0057
1790742808.196398,0.00174,0.006,-0.99928,0.00407,0.01573,0.00994
1790742808.223836,-0.0027,0.00725,-1.00041,0.01199,-0.00861,-0.011
1790742808.2533,-0.00184,0.008,-0.99684,0.00191,-0.00703,0.01207
1790742808.284229,-0.03323,0.03359,-1.00348,-0.00016,-0.03401,-0.00476
1790742808.304807,-0.01202,-0.0255,-1.00281,0.00334,0.0003,0.00531
1790742808.32269,0.0034,0.02007,-1.00166,-0.00329,0.02897,0.00209
1790742808.342808,-0.02048,0.01242,-1.00298,0.0049,0.00214,0.00402
1790742808.363712,-0.00427,0.00927,-0.99752,0.01561,0.02365,0.00825
1790742808.3829288,-0.02776,0.02437,-1.00221,0.00097,-0.02369,-0.0057
1790742808.394201,-0.00577,-0.032,-1.00003,0.00665,-0.02066,0.00904
1790742808.422833,-0.00736,0.02358,-0.99854,0.0018,0.00588,-0.00053
1790742808.444049,-0.02896,0.02566,-1.00299,0.00403,0.00175,0.00715
1790742808.464561,-0.01591,-0.00236,-1.00238,0.0013,0.00964,-0.00072
1790742808.48349,-0.01718,0.0077,-1.00054,0.00057,0.01113,-0.00089
1790742808.504145,-0.02247,0.00891,-1.00179,-0.00104,0.00359,0.00283
1790742808.5247989,-0.02064,0.0203,-1.0008,-0.00015,0.00463,0.00222
1790742808.543512,-0.01607,-0.00044,-1.00095,-0.00029,0.00541,0.00088
1790742808.563991,-0.01974,0.01231,-1.00146,-0.00112,-0.00062,-0.00105
1790742808.587567,-0.01577,0.00702,-0.99981,0.00447,0.00309,0.0057
1790742808.6062799,-0.01709,0.01347,-1.00209,0.00199,-0.00169,-0.00163
1790742808.624178,-0.01397,0.00352,-1.0017,0.00205,0.00467,0.00658
1790742808.663863,-0.01626,0.00857,-1.00014,0.00335,0.00546,0.00036
1790742808.687985,-0.01724,0.00992,-1.00165,-0.00055,0.00389,0.00018
1790742808.701159,-0.01608,0.00793,-1.00271,0.0022,0.00386,0.00269
1790742808.723215,-0.01584,0.00901,-1.00032,0.00099,0.00119,-0.00291
1790742808.744246,-0.01801,0.00769,-1.00006,0.00222,-0.0014,0.00652
1790742808.762826,-0.01585,0.01285,-1.0024,0.00069,0.00365,0.00139
1790742808.7830322,-0.01756,0.00814,-1.00309,0.00138,0.00184,0.00199
1790742808.8048372,-0.01718,0.00811,-1.00092,-0.00083,0.002,0.00271
1790742808.822619,-0.01342,0.00991,-1.00022,0.0026,0.00362,0.00186
1790742808.8440378,-0.0114,0.0099,-1.00007,0.00424,-0.00161,-0.00055
1790742808.8633301,-0.01748,0.00346,-1.00047,0.00012,0.00445,-0.00325
1790742808.8838348,-0.03302,0.00739,-1.00263,0.00198,0.01019,0.00445
1790742808.9059122,-0.01066,0.02497,-1.00119,0.00928,-0.01759,0.0073
1790742808.923574,0.01801,0.00276,-1.00165,0.00829,-0.00399,-0.00704
1790742808.94316,-0.03459,-0.01087,-1.00454,-0.00408,-0.01588,0.0029
1790742808.96408,-0.0315,0.02801,-1.00105,0.0091,0.01197,-0.00487
1790742808.9839911,0.01217,0.02566,-0.99887,0.00687,0.01634,-0.01169
1790742809.005285,-0.01871,-0.01231,-1.00312,-0.00467,0.00838,0.03897
1790742809.023792,-0.02398,0.00397,-1.00067,-0.0002,-0.00242,-0.0482
1790742809.04366,-0.01368,0.02751,-0.99885,-0.00131,0.01239,0.01227
1790742809.0637991,-0.02746,-0.01719,-1.00057,0.00928,0.00499,0.02786
1790742809.0841012,-0.01663,0.05093,-1.00308,-0.00511,0.0012,-0.06422
1790742809.105072,-0.01675,-0.02309,-0.99874,0.00012,0.01384,0.03926
1790742809.118965,-0.02489,-0.00162,-1.00076,0.00147,0.00218,0.00921
1790742809.143695,-0.02367,0.03036,-1.00264,-0.00054,-0.00068,-0.00379
1790742809.1638641,-0.02701,-0.01027,-1.00109,0.00016,0.00043,0.01759
1790742809.1871092,-0.01328,0.02853,-1.00121,0.00185,0.00102,-0.02108
1790742809.20794,-0.02012,-0.00156,-1.00157,0.00355,-0.00217,0.01229
1790742809.223541,-0.01544,0.0103,-1.00153,0.00309,0.0084,0.00815
1790742809.2434602,-0.01129,0.00915,-1.00103,8e-05,0.00351,-0.01238
1790742809.263792,-0.01043,0.01837,-1.00127,-0.00266,-0.00147,-0.00651
1790742809.2837088,-0.00433,0.0082,-0.99906,-0.0016,0.0041,-0.00344
1790742809.3004658,-0.00939,-0.00233,-1.00024,0.0044,0.00216,0.0182
1790742809.323631,-0.01827,0.02784,-1.00036,0.00066,0.00275,-0.02296
1790742809.343821,-0.03002,-0.00819,-1.00207,0.0025,0.00331,0.04113
1790742809.361946,-0.03102,0.0101,-1.00323,0.00197,-0.00278,-0.00493
1790742809.384326,-0.00942,0.0362,-1.00231,-0.00184,0.003,-0.04267
1790742809.398716,-0.01821,-0.02133,-1.00212,0.00538,0.00963,0.04821
1790742809.4242198,-0.01838,0.01188,-1.001,-0.00138,0.00418,-0.01992
1790742809.444032,-0.00982,0.0248,-0.99937,0.00312,0.00169,-0.00565
1790742809.4638588,-0.01802,-0.00939,-1.00045,0.00054,0.00561,0.0246
1790742809.483676,-0.01145,0.01296,-1.00121,8e-05,0.00214,-0.01252
1790742809.504589,-0.01202,0.01914,-0.99999,6e-05,0.00135,-0.00627
1790742809.52352,-0.01868,-0.00528,-1.00031,0.00112,0.00546,0.01987
1790742809.546443,-0.02158,0.00598,-1.00314,0.0034,0.0023,0.00395
1790742809.56429,-0.01324,0.03138,-1.00178,-2e-05,0.00499,-0.02051
1790742809.5860128,-0.01435,-0.00312,-1.00057,-0.00098,0.0003,-0.00476
1790742809.6245198,-0.01218,0.00288,-1.00082,0.00186,-0.00058,0.01918
1790742809.644317,-0.02042,0.00076,-1.00091,0.00274,0.00402,0.00984
1790742809.65446,-0.01901,0.0338,-1.00253,-0.00314,-0.01595,-0.02414
1790742809.686597,-0.00956,-0.01665,-0.99826,0.00414,0.03638,0.01462
1790742809.707084,-0.01992,0.01803,-0.99995,-0.00133,-0.00132,0.00887
1790742809.723437,-0.02549,0.01784,-1.00113,0.00583,-0.00542,-0.01442
1790742809.75168,-0.01568,-0.0034,-1.00052,-0.00158,-0.00145,0.01098
1790742809.765985,-0.01405,0.02591,-0.99935,0.00578,0.00343,-0.00117
1790742809.783742,-0.02074,0.00551,-1.00315,-0.00577,0.01484,0.00746
1790742809.806035,-0.03456,-0.00743,-1.00378,0.005,0.0097,-0.03406
1790742809.823017,0.00535,0.02676,-0.99782,0.0005,0.00894,-0.00356
1790742809.843544,-0.00841,0.00235,-1.00136,0.00883,-0.00803,0.02851
1790742809.864498,-0.02231,0.00422,-1.00246,-0.00507,-0.00491,0.00991
1790742809.8865469,-0.02693,-0.00536,-1.00074,0.00336,0.00634,0.01401
1790742809.906121,-0.03117,0.02692,-1.00458,0.00754,-0.01877,-0.0062
1790742809.944104,0.01919,0.03654,-0.99992,0.00964,0.01685,-0.04488
1790742809.9644532,-0.03374,-0.02242,-1.00571,0.00234,-0.00221,0.05041
1790742809.98579,-0.02852,-0.00072,-1.00349,0.00269,0.00542,-0.02337
1790742810.006811,0.00283,0.04185,-1.00037,0.00277,0.00457,0.00851
1790742810.01902,-0.01326,-0.01078,-1.00201,0.0012,0.00033,0.00922
1790742810.0435169,-0.02118,0.00409,-1.0021,-0.00297,0.00173,-0.00206
1790742810.0676649,-0.0139,0.02392,-1.00048,0.00103,-0.00152,-0.0086
1790742810.0837178,-0.01846,0.00536,-1.00073,0.00396,0.00399,0.01644
1790742810.106153,-0.02533,-0.01228,-1.0027,2e-05,0.00191,0.02392
1790742810.115957,-0.02602,0.01848,-1.00065,0.00361,0.00226,-0.00064
1790742810.144211,-0.0194,0.0295,-1.00052,0.00087,0.00157,-0.0258
1790742810.1648011,-0.0119,-0.00163,-1.0016,6e-05,0.00342,0.00847
1790742810.1861062,-0.0084,-0.00619,-1.00233,-0.00117,0.00198,0.00854
1790742810.20461,-0.00914,0.01905,-1.00251,0.00122,-0.00043,-0.0096
1790742810.219567,-0.00565,0.01987,-1.00111,-0.00086,0.00463,-0.02102
1790742810.246409,-0.00581,-0.0018,-1.00001,0.00097,0.00281,-0.00212
1790742810.2649448,-0.02917,0.00108,-1.00143,0.00411,0.00885,0.04175
1790742810.3051898,-0.02252,0.03976,-1.00334,-0.00353,-0.00631,-0.04811
1790742810.323624,-0.02244,-0.00996,-1.00169,0.00309,0.00714,0.0222
1790742810.344238,-0.02922,1e-05,-1.00119,0.00011,0.00075,0.00778
1790742810.361065,-0.0192,0.03021,-0.99923,0.0031,0.00129,-0.01706
1790742810.3833852,-0.02197,-0.00565,-1.00203,0.00031,0.00128,0.01463
1790742810.4036841,-0.02231,0.00407,-1.00288,0.00049,0.00452,0.00179
1790742810.4233642,-0.01409,0.02676,-1.00149,-0.00019,0.00546,-0.01175
1790742810.445687,-0.02024,-0.00389,-1.00256,0.00116,0.00268,0.01624
1790742810.468801,-0.01667,0.00493,-1.00126,0.0018,0.00073,-0.00243
1790742810.483395,-0.00965,0.02307,-1.00036,-0.00229,0.00223,-0.00671
1790742810.503547,-0.01639,-0.00111,-1.00301,0.00122,-0.00026,0.01565
1790742810.5236108,-0.0121,0.00609,-1.00228,0.00104,0.00406,-0.0039
1790742810.545011,-0.00738,0.02057,-1.00006,0.00232,-0.00219,-0.02378
1790742810.5582662,-0.00598,0.00531,-1.00068,0.00167,0.0018,-0.00229
1790742810.5844328,-0.01294,-0.00379,-1.0015,0.00063,0.00187,0.01732
1790742810.60951,-0.02099,0.00813,-1.00144,0.00257,0.00409,0.01705
1790742810.6236942,-0.02903,-0.00266,-1.00191,0.00259,2e-05,0.021
1790742810.64373,-0.03519,0.00607,-1.001,-0.00057,0.00544,0.01004
1790742810.659078,-0.02582,0.02532,-1.00127,0.00287,0.0027,-0.0112
1790742810.6884239,-0.01636,0.01514,-1.00142,0.00059,-0.00096,-0.03382
1790742810.704177,-0.00282,-0.00062,-1.00014,0.00073,0.00567,0.00366
1790742810.723287,-0.00565,-0.00401,-1.00263,0.00663,-0.00148,0.02295
1790742810.750089,-0.01208,0.02253,-1.00215,-0.00116,0.00102,-0.01217
1790742810.7684119,-0.01408,0.00419,-1.00095,0.00143,0.00501,0.01039
1790742810.8058822,-0.01902,-0.00454,-1.00165,0.00382,0.00386,0.03293
1790742810.816913,-0.02143,0.02837,-1.00209,-0.00471,0.0002,-0.03047
1790742810.8687649,-0.01733,0.01487,-1.00302,0.00371,-0.00086,-0.00933
1790742810.871812,-0.01733,0.01487,-1.00302,0.00371,-0.00086,-0.00933
1790742810.8816068,-0.02073,0.00355,-0.99993,0.00465,7e-05,0.00983
1790742810.9078999,-0.02073,0.00355,-0.99993,0.00465,7e-05,0.00983
1790742810.9197319,-0.01488,0.00969,-1.00025,0.00383,0.00237,-0.00654
1790742810.9437351,-0.01954,0.01668,-1.00137,-0.00046,0.00261,0.00384
1790742810.983335,-0.02181,-0.0024,-1.00274,0.00135,0.00153,0.00972
1790742811.003807,-0.01531,0.01834,-1.00089,0.00157,0.00184,-0.00901
1790742811.0234659,-0.01957,0.00255,-0.99971,0.00204,0.00509,0.00976
1790742811.0444312,-0.01955,0.00881,-1.00177,-0.00032,0.00252,0.00152
1790742811.064646,-0.01091,0.01751,-1.00196,0.00155,0.00345,-0.01054
1790742811.0851479,-0.00696,0.01215,-1.00301,0.0014,0.00478,-0.00801
1790742811.105786,-0.01017,-0.00549,-1.00181,0.00702,0.00445,0.01809
1790742811.123007,-0.02094,0.00985,-1.00027,0.00294,0.00338,0.01047
1790742811.1475031,-0.02418,0.00081,-1.0019,0.00183,-0.00162,0.00954
1790742811.165185,-0.02156,0.0117,-1.00098,-0.00015,0.00388,-0.00156
1790742811.1823559,-0.02579,0.00332,-1.00203,0.00145,0.00827,0.0212
1790742811.223128,-0.02739,0.01158,-1.00207,0.00065,0.00588,0.00044
1790742811.2463858,-0.01802,0.02006,-1.00031,0.00365,0.00693,-0.01922
1790742811.264235,-0.01274,0.0076,-1.00251,0.00213,0.00153,0.00068
1790742811.284578,-0.00892,-0.00267,-1.00064,0.00124,0.00133,0.00822
1790742811.305923,-0.00227,0.01509,-1.0009,0.00377,0.00172,-0.00452
1790742811.317516,-0.00263,0.01559,-1.00215,-0.00211,0.00287,-0.01624
1790742811.343968,-0.01294,-0.01652,-1.00096,0.00434,-0.00104,0.04778
1790742811.364309,-0.00655,0.03366,-1.00103,-0.00413,-7e-05,-0.04561
1790742811.3847308,-0.02343,0.00526,-1.00207,6e-05,0.00285,0.00089
1790742811.4047942,-0.01812,0.01604,-1.00015,0.00269,0.00329,-0.00751
1790742811.4190269,-0.02393,0.00447,-1.00161,-0.00313,0.00385,0.00752
1790742811.4435751,-0.02459,0.00564,-1.00127,0.00562,0.00316,0.00321
1790742811.47594,-0.02079,0.01808,-1.00049,-0.00124,0.00236,-0.00497
1790742811.503296,-0.02235,-0.00094,-1.00104,0.00174,0.0013,0.01437
1790742811.524107,-0.01939,0.01002,-1.00033,-0.0001,0.0019,-0.00743
1790742811.543607,-0.01698,0.0162,-1.0025,0.00432,0.00506,-0.00167
1790742811.5644732,-0.01843,-0.00105,-1.00495,0.00109,0.00428,0.0126
1790742811.5736709,-0.02,0.00303,-1.00133,-0.00405,0.0086,0.01176
1790742811.604882,-0.01913,0.02776,-1.00107,-0.00429,0.00332,-0.02215
1790742811.621737,-0.0201,0.00416,-1.00199,0.00148,-0.00115,0.00079
1790742811.643871,-0.00673,0.0028,-1.00087,0.00058,0.00289,0.00541
1790742811.664032,-0.00326,0.00922,-1.00036,0.00069,0.00247,-0.00448
1790742811.6772459,-0.01104,0.01008,-1.00028,0.0021,0.00284,0.00493
1790742811.705441,-0.00885,0.01857,-1.00157,-0.00098,0.00244,-0.0254
1790742811.719869,-0.00205,0.00771,-1.00092,0.00038,0.00385,-0.00435
1790742811.7492511,-0.017,-0.01678,-1.0011,0.00621,0.00304,0.05049
1790742811.764727,-0.03354,0.02681,-1.00195,-0.00184,0.00376,-0.02129
1790742811.781239,-0.02398,-0.0249,-0.99917,0.0023,0.00439,0.0358
1790742811.8034718,-0.024,0.02225,-0.99999,-0.00252,0.00402,-0.0234
1790742811.816759,-0.01949,0.01477,-1.00242,0.00192,0.00114,0.00421
1790742811.845506,-0.0216,-0.0061,-1.00154,-0.00033,0.0031,0.01797
1790742811.896321,-0.01622,0.01233,-1.00203,0.00055,0.00345,0.00936
1790742811.9033148,-0.01868,-0.00726,-1.00215,0.00024,0.00336,0.01044
1790742811.925409,-0.00711,0.02493,-1.00039,-0.00031,0.00379,-0.01896
